time,packet,altitude,pressure,temp,voltage,gps_lat,gps_lon,gps_alt,accel_x,accel_y,accel_z,g_force,gyro_rate,state,temperature,humidity,pm25,coal_gas
0.0,0,0.4336370160893431,100.4832456131188,22.675843919281665,12.548831924986557,26.72001788646639,84.30456506093618,70.83533790338345,-0.21124406005693813,0.10402285790432098,9.875824593059216,1.0511916365408096,-9.030304509239667,2.0,22.7041227210298,77.87530055966349,141.44549971618173,11.35439286500678
0.1,1,0.15548753765243595,100.48759855980336,22.473045995983803,12.517433102540704,26.720051693294092,84.30457539571775,68.94939803619195,-0.19014667919330605,-0.031510510726931715,10.048085178114222,0.980542466907322,-2.8852947431745024,2.0,23.0357766136523,74.71702340661656,139.30748660176354,11.254871501540752
0.2,2,0.21982304309461742,100.4842375552817,22.650804019718045,12.487698632656377,26.720007950784353,84.30456622054838,68.96951841810633,-0.042903139580383685,-0.14832428722655694,9.671000580504689,1.0716036268181115,8.590139105600295,2.0,23.206214464556982,78.54018008714168,145.8209643474096,12.266916642377549
0.30000000000000004,3,-0.41706540240309936,100.51080053810682,23.012429521871038,12.536267814230515,26.720065870179283,84.30458686182641,72.10552372743743,0.16312602707447232,0.04887047116842105,9.775969550897598,0.9961980299411437,-3.4832462276385368,2.0,22.163770828407912,76.73086876688619,132.86198663096945,12.187365628244729
0.4,4,0.283307654179718,100.49366255275645,23.00455087349346,12.462334286184259,26.71999481458679,84.30460421555671,70.43780725699838,0.12563483235297032,-0.16176452991428716,9.61800815693903,1.0199726880150701,1.841460175453441,2.0,22.729976716319907,77.18376863253602,151.63094565729278,11.690760580687744
0.5,5,-0.16261259297055256,100.4934794322057,23.129846129078295,12.540052402829698,26.72000464579773,84.30462371212616,70.54730044157587,-0.025462740726483624,0.012611308006636568,9.883810195795103,0.9533392672098989,-1.3048191727540517,2.0,23.052022145594208,78.2556614149141,152.96304949803545,10.99430632049881
0.6,6,0.3260961251704646,100.50244305505761,22.91968130562868,12.529386665530195,26.720014768077846,84.30454421587584,70.78825310202957,0.2109441957488687,-0.17564536387526242,9.71069134809141,1.015906831024913,-3.0203213534376294,2.0,22.960995292433967,75.05105813964359,143.0592251059217,12.301584665808726
0.7,7,0.2688578544552047,100.47607499191747,22.568677598504888,12.489063076355334,26.720038149715634,84.3045787750341,70.34681651963199,-0.125512509729771,-0.17469024308703357,10.126741914431069,1.0140555656980896,1.0759640484909898,2.0,22.397566371451628,80.13078953204909,153.9108291053643,12.005646578354668
0.7999999999999999,8,0.2083513095632068,100.4961635528859,22.718012022918767,12.492864872284663,26.720034793532868,84.30457588188608,71.65360882461165,-0.07305171521417805,-0.028433686537484997,9.708931585044958,0.9840605713552708,-1.462634221236596,2.0,22.980031369769332,79.52726598685764,155.20757536373605,11.29529329126379
0.8999999999999999,9,0.5008027040953402,100.4826847939043,22.79893772182549,12.520170961065913,26.72003845993152,84.30459759184531,71.59556996307833,0.19434893133540213,0.2291924129328771,9.716534504805772,0.9915334443598322,-1.1884613750935404,2.0,22.90715694605169,80.30223358769584,147.33758721483784,11.641380773386281
0.9999999999999999,10,0.42513548847503907,100.47634680576382,22.569436840385162,12.48437546998286,26.72004850066097,84.3045804306284,67.90164210374746,0.28087285927205974,-0.07072943853322773,9.736706778709554,0.9742327653405083,-0.7135947773289093,2.0,22.898807327670156,73.54421518598355,124.75016851070292,13.02510595092434
1.0999999999999999,11,-0.07667740724442204,100.51429821537727,22.83651325328956,12.505055787245151,26.72005433387021,84.304585972182,69.66186780973298,-0.0938751841653352,-0.18356811583960594,9.75740322573622,1.0354197086665347,-5.151037270542754,2.0,23.080138624469487,76.32230023937335,140.29832546701968,12.141608918998891
1.2,12,-0.6503278784499689,100.49492419412164,23.39609288043844,12.517333764576385,26.720051661961524,84.3045723311692,68.80217278027995,0.040487093236884035,0.08433184531831289,9.74806861491909,0.9997737089533159,1.5550406746169374,2.0,23.390057194014712,76.14173249465395,151.10112684675738,11.460832141701731
1.3,13,0.6701662452216833,100.48885333778986,22.522322532102972,12.520532936808277,26.72000247221728,84.30462483519781,69.99323995044328,-0.20122797191192687,0.062418634108066744,9.958986775886691,1.0303939394589654,-1.6699570019910737,2.0,23.408746237682955,77.1574593529303,139.5550898593519,11.704740482577677
1.4000000000000001,14,-0.01860625078002518,100.47643756830503,23.0377068442476,12.516295826352257,26.720000237470952,84.30458451127032,72.76551820386544,-0.1026832526485753,0.20177985528535694,9.811141987614308,1.024312141773571,2.48613448942753,2.0,22.88600169993603,79.69536539205004,130.6976969496569,11.806278538972151
1.5000000000000002,15,0.37748452819626416,100.50560898167309,22.63621370933723,12.51859087594361,26.720051312827568,84.30459196759145,68.75766629640238,0.03542441661707206,0.04263926146096759,9.908896107700542,1.0848044699264416,-3.6204465643741086,2.0,23.188356769967648,76.07547007161615,142.47671338531663,12.824834351120636
1.6000000000000003,16,-0.44705119487757844,100.4798471636142,23.315493388380965,12.497247625044746,26.720018532816447,84.30460709022348,70.05435799983823,-0.071541331698535,0.14023878114682942,9.772590402829914,0.9675613734185851,0.054370949727055695,2.0,23.24011523494474,78.43750562457352,129.7741581647273,12.533435801087283
1.7000000000000004,17,0.016977627405305357,100.48915789138856,22.9322731108839,12.489898709752985,26.72006584025614,84.30455487869962,70.8995367145904,0.3249854921277468,-0.16779475975077135,9.77665315990225,0.9341041829960226,-2.4366637840454786,2.0,22.905509365939672,77.78059594282146,141.36656873545164,11.941994341703039
1.8000000000000005,18,0.21577391566677057,100.48812444754827,22.62118359333141,12.52585363858809,26.720007723016288,84.30458548073135,69.65725503115061,0.01740169235845794,-0.09636364642590575,9.730123141898975,1.020143224505002,1.1757491026124955,2.0,23.51637188611784,78.68636697125976,146.00566856682636,12.174286251167597
1.9000000000000006,19,0.29987967245018826,100.4592179849934,23.341758461315692,12.487216097208742,26.720037305689925,84.30456964293641,72.31516440003634,0.12353729067250774,0.11785891503356272,9.908644915601611,1.0159941661758114,-7.804015478605142,2.0,23.247315135470306,80.51639521977592,140.61053005238077,12.140350180316007
2.0000000000000004,20,-0.9977713748482469,100.50202799000971,23.450402228060888,12.50649045760431,26.72001627985354,84.30457638012331,68.96597182554146,0.21719541637026885,-0.011264840322326991,10.118604722673757,1.0500953766453418,2.6460667718099455,2.0,22.97713749591928,76.39510777299068,141.41986114287155,12.250408786252063
2.1000000000000005,21,0.6761987192617477,100.4658294387446,23.1539330506939,12.482047779060347,26.72003014947292,84.30456293324627,69.20563612116392,-0.10807950975451887,-0.024147420640934166,10.176646115891748,1.0580586411062134,-2.9404411483380084,2.0,22.81308518437274,75.19393174636939,148.84341392428308,12.223190550169292
2.2000000000000006,22,1.0171053403872428,100.47237523639535,23.189441777952133,12.47623239447905,26.720018237101577,84.30457175624377,71.74529080242307,0.26037027472295937,-0.2956232633050149,9.675437546875408,1.078042008452618,-5.093823021411129,2.0,22.854984617765673,78.01525244876079,137.9121885929268,12.064571799398736
2.3000000000000007,23,0.4200334466956224,100.49547764602778,23.404939586779463,12.474252345093491,26.720051856275354,84.30460448796471,70.94432214206475,-0.08295835062750274,0.10382660542369822,9.865793122286659,1.0568233293298042,-4.33631347804743,2.0,23.341433133709376,76.8729418729102,143.74416329414544,12.682910359504644
2.400000000000001,24,0.08173254238386166,100.49727128700434,22.525611529509963,12.503648500409852,26.720034143506798,84.30456285616384,68.63405251126294,-0.1412628143335841,0.25647337965714967,10.027817407647397,0.9791946446888838,-2.8645062198325166,2.0,22.45778166532395,77.77405357845312,146.27989939590142,11.326134115703706
2.500000000000001,25,-0.17495132375160996,100.49769883648388,23.319917765317552,12.502169216597522,26.71998379029154,84.30458152897695,71.75167652754199,-0.23930029724067528,-0.13088192164426818,10.054891748743843,0.9975220504749845,-1.1701840453210752,2.0,22.85685480519191,76.94270234020813,145.40783815027564,12.174340239071615
2.600000000000001,26,-0.37117226942104886,100.49633133621921,22.355475685503386,12.506777371438945,26.72003006289838,84.30455462902248,70.68266305217686,-0.10910702473014351,0.12837679751519904,9.604342960409479,1.030367716531761,-5.478435579502587,2.0,23.19889981206531,75.89379357080747,142.63207511839707,11.856065093132457
2.700000000000001,27,0.4833538849298209,100.46084643525917,22.94640041816924,12.478797244339345,26.72004097932501,84.3045554377563,69.93718658489648,-0.06575415381523865,-0.03048605031995928,10.127007668305172,0.9911331889796268,3.703551449821626,2.0,23.38698388150683,78.3889772288464,163.28129868559813,11.52284150634505
2.800000000000001,28,-0.22130459311246894,100.4748729518742,23.57950165868314,12.506440490634882,26.720001258728434,84.30460955163866,69.7468463759426,-0.014687484138187507,0.1801814386550362,9.89179961769676,1.0920421514231857,5.178842111197807,2.0,22.827775553650458,77.03092931127907,143.00235050532723,12.05269066914015
2.9000000000000012,29,-0.4575005276236373,100.49392603832193,22.74179246383568,12.447825965214996,26.720029916579193,84.30455640627835,70.65301835786613,-0.045070004614144614,0.15219242846730008,9.779488887946014,0.9903322567748675,-2.9453505948055207,2.0,22.437841065707214,76.33027815976189,152.92601375973095,11.85273835739651
3.0000000000000013,30,0.2468882656427197,100.5064812541685,23.143620555798787,12.505895836518823,26.720010728036037,84.304595631758,71.05616262874098,0.031866742144398975,0.1024028740549874,9.587836659325204,1.0573466355090788,0.36508685026540233,2.0,22.9902436529977,80.98812596822827,135.585642116942,12.50252294461934
3.1000000000000014,31,0.08124604946224777,100.50732747118205,23.21541371271082,12.499946322019886,26.720036365945255,84.30459020530432,69.9145927184229,-0.07473800503283456,-0.15087083463971016,9.803704996587344,0.9658824000057837,-1.2938156639819138,2.0,22.73363694182648,76.87724298621143,144.25036303902732,11.759371323772914
3.2000000000000015,32,0.2648280627089031,100.526289643803,22.64261833333756,12.487040888776852,26.719976611300286,84.30459666668506,70.7487740205518,0.024356980915406223,0.2780150849008364,9.892592756586392,0.9738362422847303,4.1067271545316135,2.0,22.969480590266972,76.97499985241079,137.5725877742203,11.917880885830238
3.3000000000000016,33,0.5394055954425531,100.48912060585354,22.94704318522264,12.471026510160517,26.72004529638839,84.30457681268562,69.41272458902473,0.24524015043260197,0.034898006986812065,9.923233471061021,1.0107038070127385,3.6852777628418516,2.0,22.74428036350423,76.66665881338788,136.7702303176131,11.293367833559397
3.4000000000000017,34,0.5841210445115176,100.47701794414071,22.50662383202483,12.482832833364967,26.720019570371342,84.30459613474729,69.49839054766667,-0.12987886399779894,-0.10171743435460921,9.72923942405598,0.952996588152645,2.1173671568847188,2.0,22.861426870325538,78.23955834771854,147.54010816220048,12.889025370743333
3.5000000000000018,35,-0.3902333790674917,100.45368692861851,22.651870383789127,12.462926685995667,26.719992919698168,84.30464164053562,68.51052955736085,0.040826379937280825,0.19283206684528362,9.97990823068015,1.0062145129607256,-5.777594536965008,2.0,22.983590635442106,78.54165670929605,138.93721618236466,11.917479597360881
3.600000000000002,36,-0.4160170789029207,100.52584740390272,22.90896089861632,12.486513403564375,26.720020980975605,84.30461581389395,68.95479925000232,-0.09451634753819729,0.18235534993476119,9.847554810688717,1.0634682071829782,5.388451460373279,2.0,22.899786259809257,79.93414262626608,137.58954016767228,11.103817279729487
3.700000000000002,37,0.6535529917942912,100.47549844725282,23.303296017102017,12.47913070607762,26.720055239847916,84.30457781679215,70.23993695006244,-0.05060679299971204,0.05662772808810977,9.598449732375657,0.9728258362143828,-1.224591358348237,2.0,23.14734338635915,76.14410239042805,152.91756225252448,11.603165785365624
3.800000000000002,38,0.1642642048811447,100.48215634186941,22.832143849314576,12.506591777123413,26.7200326994511,84.30458307498691,71.1487620147965,0.18623145356020535,0.10198257272836664,9.616090945968033,0.9462866353142627,-4.195895667978279,2.0,23.008895245369324,79.143572123657,155.506173790084,11.737204412890017
3.900000000000002,39,-0.28433969076349225,100.48748707140423,23.403992438275644,12.466169866987231,26.720018935942498,84.30461451614677,69.7363576007127,-0.004083804668228546,-0.0026462145424630133,9.891269302356301,1.039994121179893,-7.8435886145906935,2.0,23.154174610129292,76.46228812733172,153.07535044545833,12.445383079108646
4.000000000000002,40,-0.5147644700143418,100.47949610372841,23.488541907855552,12.516630637368776,26.720054189286593,84.30458907867258,72.65849170836393,0.0902267849088598,-0.320069902793895,9.711143973907557,0.9890634210991555,-2.7486616356769176,2.0,23.080038405378904,75.44259864292812,142.07849492625397,11.946077683275773
4.100000000000001,41,1.0654972120858377,100.50145728684652,23.249684402153505,12.472668520111448,26.72005683522309,84.30457357310597,73.23935338516617,-0.19107569290976056,-0.32237272517978716,9.942570912627357,1.002548656134689,-1.1861970488353477,2.0,23.258131785256328,76.94507523538438,135.87128539361652,12.280514722442165
4.200000000000001,42,0.5028500806838271,100.47987298359975,23.035737978744887,12.51554890729128,26.72004282778494,84.30458584629756,68.40174732640088,0.22367642198550125,0.032028118297103024,9.695840100416229,1.0705169505599914,-1.0373267450283747,2.0,23.112125847595486,76.07821306911353,144.42483239461205,12.166182735434846
4.300000000000001,43,-0.680012433219605,100.47698713847936,23.386417638514448,12.481438925036203,26.720067815295607,84.30457779284289,72.35644820361254,0.06363149326404051,0.11732520665591989,9.677768566914075,0.8990334389406671,5.401837703288904,2.0,23.05813124928676,76.37575286515141,158.17251958031397,12.381224193888718
4.4,44,-0.17658425769422828,100.49501424095791,22.822362520818622,12.493559578821724,26.720055067008584,84.30453734978094,70.34557035771392,-0.04415083391358821,0.1381164281955904,9.875189775493634,1.0336525704636603,-3.585984482775076,2.0,22.892537715803414,79.82306459715399,138.06976709020898,12.576251881045321
4.5,45,-0.46527886789571055,100.51331762533424,22.948679281549122,12.452348383081324,26.719979593499666,84.30458154105095,69.75193451499514,0.23318074517646692,-0.1480241189767918,9.60912044711198,1.0377877655942236,7.971784293327254,2.0,23.00908506472658,78.92974114836615,151.13416126065454,11.852080867328315
4.6,46,-0.10162576700118198,100.49823288244396,22.81113617944954,12.47928190840359,26.72002652503618,84.30458467393514,69.41837430813254,-0.2806165693192828,-0.0991962152624714,9.909125126165765,1.005489191337788,3.431822631905997,2.0,23.123781853051625,76.7424107423641,150.9815976454744,13.07042269834973
4.699999999999999,47,1.0142607787702809,100.49530018696997,23.267864685072208,12.534039180992448,26.72000559813054,84.30459630137885,70.13293684217884,-0.08349248649649878,0.08368450354322847,9.801965345826659,1.0491972183185014,1.181298170879783,2.0,22.907333480457936,77.30392447345612,146.48554877528565,11.525266931017525
4.799999999999999,48,-0.522514273952577,100.52053769641877,23.23069653631244,12.485342672598406,26.72002570153494,84.3045518306613,70.8775981354605,-0.31128557660864586,-0.023836082268011344,9.799488596455664,1.0737178550657043,-0.13580725207753597,2.0,22.572402803038923,78.6943079443034,141.38120344839285,11.8917325631129
4.899999999999999,49,0.20429984130610981,100.47559600998832,22.472484748243225,12.481274317229783,26.72001664360118,84.30455609137621,70.03671808225336,-0.04217043048555467,-0.07907675541291594,9.760424667306054,0.9819389391416027,-5.3767361411657895,2.0,23.537082097293816,78.37637388833063,143.5995021840738,10.513338992928105
4.999999999999998,50,-0.6433231663377182,100.51791197058276,22.931189645682423,12.459007745873045,26.720005126686225,84.30458207562279,68.74258947963688,2.544819346324056,-0.4434304194793822,32.12057922418092,3.3284768208347453,167.9860198916917,3.0,23.03627232514323,77.7389997005334,155.19067088117473,13.503453824804048
5.099999999999998,51,0.3532144993435344,100.4933324569935,23.624204818336537,12.468272352981787,26.720050758267313,84.30452852692964,72.88456175900468,2.6583080010195,0.3686078953793056,33.37623886323557,3.3771355087536197,161.31012832054063,3.0,22.91901838277536,76.08228192832405,171.03063570112596,12.772350311885491
5.1999999999999975,52,0.6802079177111904,100.49312364788604,23.310144859223744,12.467132953796355,26.720055168979776,84.30459615205685,71.99114429441235,1.4848971818717742,0.8726649814812956,34.01843776521708,3.4986176706032235,148.88562692332533,3.0,22.849399567750087,76.02019283547713,138.5266458258457,11.621067865825584
5.299999999999997,53,0.7126292814931882,100.44562220305053,23.68420014794469,12.474496023369358,26.720072274094825,84.30459400786971,67.35116908113349,2.4621666820730996,-0.23032652186181418,34.377968222822254,3.4939324611339155,198.38491654459258,3.0,23.17616993293104,76.18846141780314,139.37811858570186,13.30900910874337
5.399999999999997,54,2.8354296218128043,100.46463538220648,23.047831769162073,12.48070592851913,26.720030892530783,84.30457538623018,72.96513065403452,2.130850274623081,-0.008332151198114271,32.8086880987459,3.296711915162558,201.76083175750315,3.0,22.994018560974457,77.88483093901266,139.66821399364125,11.549630343585047
5.4999999999999964,55,2.12795715155226,100.47030145427244,22.634509121979896,12.447874495831963,26.72002707498619,84.30460996152551,70.4115888348882,2.2143350555315338,-0.5524904058718053,33.34616727381743,3.3878216476104446,146.9771349201629,3.0,23.165879045501654,75.2156738819624,137.3759943253279,12.187464776715519
5.599999999999996,56,3.9184396412527027,100.46114418928856,22.560250447956303,12.515998729614175,26.72004118090974,84.30460546181979,72.62216387095714,2.479841923575337,-0.0334072515649293,32.13920655325357,3.2415988222152654,162.3999874662819,3.0,22.95819158280964,79.8230040520478,166.0870703084077,11.324853811786472
5.699999999999996,57,4.640076594856471,100.38410990012115,22.725284882220258,12.519542144548344,26.72003554692288,84.30458422814407,73.22382595704933,2.3127933841077652,0.4814330018700921,31.657854390292012,3.286571358321636,140.65112487925404,3.0,22.462396642691846,77.57365497869574,158.3437321934487,11.873805641846815
5.799999999999995,58,5.377517720384202,100.40144711519322,23.15617955124703,12.49071590514731,26.72002501197783,84.30460816003638,74.1373783614872,1.925985068650106,0.4335975285385833,33.97566638316091,3.483530787569206,177.65710176464734,3.0,22.466023377995192,80.6426299840183,148.38005190330196,11.526342554380859
5.899999999999995,59,7.388883567331639,100.43460235388835,22.659576836435818,12.461281753008514,26.720067222502,84.30455922272596,76.13019156252784,2.286219332532147,0.3003757675327803,32.09147210714459,3.2938178659031334,155.9482828635297,3.0,22.80367415981693,74.96772041317497,142.8496752643597,12.665575212013028
5.999999999999995,60,7.667273329453215,100.37696960169171,23.02324115629966,12.485795215994317,26.720004485324726,84.30460246138534,76.56076397329015,2.39130613488164,0.48941173485547895,33.69015037402841,3.5034887025044403,172.39506403668972,3.0,22.411557978477653,78.69718955867178,145.7967515688879,11.71292849162406
6.099999999999994,61,10.216037798217176,100.35664563154161,22.62706019678517,12.47988629161598,26.720045232087575,84.30457492530921,78.71148085918445,3.3641006032900442,-0.37773592518150634,32.42596292755094,3.3908716325307613,211.27131264072997,3.0,23.391215913005635,78.01095848756911,161.42633103520288,12.435790778128135
6.199999999999994,62,11.58270874507851,100.33841617418655,22.662965877997397,12.467598578987339,26.72004362096865,84.30458008302799,77.06200521249129,2.5004334978754637,0.7119383833014965,32.581320637587865,3.373342904875878,168.87415467529644,3.0,23.334167499339234,79.98580324913743,149.69465855122652,12.032217879392496
6.299999999999994,63,12.648470713615868,100.33381940188873,23.141464658634707,12.475537668128702,26.720042520633026,84.30459898241037,80.15007718905666,2.4399466286811418,0.15906431447077496,32.477327413971544,3.3499709612704223,164.35524957463204,3.0,23.142201437622322,78.43401371627051,125.18012170264163,12.659019148430069
6.399999999999993,64,14.807807232509422,100.29760414010487,23.62539952825356,12.487181440300253,26.720038783400415,84.3045987550258,85.26907379294747,2.1613226019724916,0.1333369880437084,34.131212695956016,3.4318190150195402,200.07549652407485,3.0,22.610560948697497,75.59730766155491,143.24610911742346,12.087713428870188
6.499999999999993,65,18.20150538035036,100.30381813943303,22.65924508114286,12.428819676526748,26.720032281885054,84.30461623453505,87.52216612951653,2.027814233019017,1.1630243600350778,31.753961855177476,3.267594496436897,215.7061084147911,3.0,23.220851254448156,78.3350678083414,140.27884015199044,12.69264888533843
6.5999999999999925,66,19.499292469702805,100.27772333460264,22.500242587815176,12.459492917066084,26.72002865612256,84.30460794315617,90.62109882507085,2.2353020435696007,0.07065899475621037,31.85512365883185,3.1346493604842864,171.5901283262932,3.0,22.578724556930798,76.50369444048599,143.89802430747153,11.328890780559497
6.699999999999992,67,22.75223589430556,100.24414181316709,22.62586201106569,12.485932444221758,26.720055860589245,84.30460779098999,93.72420541335663,1.6549196920662639,0.2761906438104283,32.04810496398004,3.2951715593770885,150.66303530301147,3.0,22.554491826930132,77.41172031271762,143.44633652455755,12.112273896658671
6.799999999999992,68,24.819449896229226,100.19441653320732,22.70135887712451,12.493654515332247,26.720053845052647,84.30458328620689,94.2065815923407,1.5670830455042455,-0.11490811928558872,32.205139264535106,3.1981452419771603,198.21474792430251,3.0,22.652592643990857,75.61356152929493,147.2299601220672,11.61579844269532
6.8999999999999915,69,26.69501122856668,100.1622724057458,23.20709780395399,12.427793611217643,26.72009360655933,84.30458443202745,97.7413165374103,1.8999238285594122,-0.4664040552376213,31.794541952715743,3.2191242516093337,152.72378651607514,3.0,22.726386456332065,79.73170395731049,129.24742030842987,11.838862056872152
6.999999999999991,70,29.401836566594113,100.12813835302963,23.16947281921411,12.485689060966248,26.720078145959256,84.30458398453635,100.89703363917157,2.347193064420247,-0.3232807194947927,32.91654260156772,3.4066239565709284,124.66245862996004,3.0,22.536782484634568,77.37773391510106,136.0693426779401,12.621637200837064
7.099999999999991,71,32.340475779444375,100.11119503490966,22.854974149905633,12.46497499792755,26.72006491305336,84.30462083437139,101.21627085871087,1.9388203343377215,-0.15843382923770535,31.902971249438874,3.2889852132718977,122.66348669298542,3.0,23.610578326655908,76.57302191397605,140.67174259587725,11.531636179940973
7.29999999999999,72,37.972646814028224,100.01395907423945,22.552128054001635,12.492015874900819,26.72003196282689,84.30463216302134,109.30666310208484,2.1584969602422808,0.2644349966479655,32.58640141046514,3.3591063731743858,88.06773174704955,3.0,22.82656431875698,77.42547006112304,135.4942857458227,11.994564957116932
7.39999999999999,73,41.31349464227134,99.97757119609736,22.193807486696098,12.430315723987162,26.720050478535065,84.30460053629467,111.95419620274711,2.4642896672023027,0.4805185529503109,33.92026320460767,3.460047488247694,120.70096536666411,3.0,22.300818686806977,78.4446316333752,132.5735382196299,11.148508860759554
7.499999999999989,74,44.22535526010214,99.94624002162499,22.403683435541783,12.466826134476822,26.72000499120635,84.30459340591766,113.82457789659925,2.3020518615579446,-0.6642179407309905,31.872118924713916,3.175931120607596,148.03886623798093,3.0,22.26753809607912,79.92634440309017,152.68925308319132,11.791395131848006
7.599999999999989,75,47.94440171024203,99.93943600165618,22.464388193805366,12.41855518245694,26.720019739167096,84.30461371845774,118.81651753452071,2.1721593085454955,0.5287156089018241,32.72760966967526,3.3347804829136334,134.4303537989746,3.0,23.128897994070922,76.62772572013573,145.95066514810867,12.441654682235322
7.799999999999988,76,55.41565362069484,99.84552412891576,22.592939640186234,12.467836961295205,26.720058569389796,84.30461945771229,125.15871013234121,2.417976085223144,-0.17879962500015623,32.18115667762898,3.3397234852300572,143.20439721404694,3.0,22.657235549000067,77.34828553100488,129.13214496894366,12.925938013159051
7.899999999999988,77,60.11473152639841,99.75893077205872,22.723072804931533,12.475472112258236,26.720087281811725,84.30458083514316,126.41212038691278,1.8988070979265252,0.15085493996053576,31.111124065135176,3.210175061676851,95.32695819389326,3.0,22.932689477758263,78.62529595317046,149.5983407324405,12.89011991454113
7.999999999999988,78,63.39408932617912,99.71864708710066,22.394802597824533,12.45299242929266,26.720035532852627,84.30461271278976,134.92011229247174,2.868939226788279,-0.41018761931251324,33.29532410639962,3.3959638785866146,90.02824123517023,3.0,22.13517690107326,79.0478816863647,141.4039306131219,12.63971661619868
8.099999999999987,79,67.64605526642649,99.68557000075651,22.920794224494955,12.450455581478643,26.72005208753218,84.30459926975853,138.35073875427346,2.3077782870965535,-0.02952078968438554,32.92826030857457,3.3617588715539175,130.83516977038383,3.0,22.880978149117524,75.99649111042426,140.40778664208597,11.992034208771368
8.199999999999987,80,72.17587769293588,99.63054756208477,22.6165726316724,12.438956050667164,26.720074960118783,84.30460330206145,143.73904251483194,2.340644551072961,0.12757258011916456,33.80315647217294,3.571455372491542,130.84426300182685,3.0,22.591031469046964,73.44682833699036,133.1938701810986,12.888717545430843
8.399999999999986,81,81.03558642987521,99.53099209642834,22.0709828259549,12.441277403101788,26.72006986327516,84.30459762127363,150.18704888072557,1.6880220237573285,0.2995733914234202,32.64680120693876,3.351258498340968,131.86672167542383,3.0,22.760252881226002,78.39974370588159,147.70390457346434,11.898477845178844
8.499999999999986,82,86.02430580651276,99.45569403818342,22.43150717179936,12.412969594467153,26.720037543643446,84.30461819148861,158.17231491361014,2.1528673340774627,-0.45536924823876024,32.101440632777326,3.2318923731994897,119.49685814733496,3.0,22.106231284344418,76.14540438541114,142.25753288245468,10.732127631015864
8.599999999999985,83,89.67479493432883,99.38902226791531,22.782866556273518,12.434535206247439,26.720081460161328,84.30459446402158,159.64843704056685,2.8533484757153307,0.1309161360197315,31.793500415934126,3.218881425347225,89.53909820927538,3.0,22.44113812114332,73.2109228628992,132.21621479686848,11.714753562083883
8.699999999999985,84,95.23770500861711,99.35187751825586,22.966068591685648,12.452406668283645,26.720080037313615,84.3046255000731,163.56135800171208,2.421944749407599,0.0648285259692809,34.080716844383545,3.50281765208036,137.77982739132491,3.0,21.95889879707557,75.17021243620691,138.23076546224206,11.737432117702387
8.799999999999985,85,100.37563876390789,99.29581943149827,22.37769319627778,12.410910893591055,26.72006578541417,84.30460542554006,171.68412195113572,2.445849301715256,0.4654689623805544,31.51123910588461,3.2450057490418773,134.63787739761253,3.0,22.375792570786757,78.21676062112365,129.40274533531448,11.932317595518768
8.899999999999984,86,104.83969954756421,99.2728313600224,22.027207781610006,12.427430262427396,26.720034504166165,84.30465445653505,175.61961957376352,2.434902390291819,0.2872690236592571,32.80299163148376,3.3449315585131782,128.1172382200355,3.0,22.77679186577182,78.590707983503,136.31254451657043,12.751552621264535
8.999999999999984,87,110.9713928103471,99.16349719400675,22.163448565998106,12.427716837314854,26.72004581748879,84.30458973333225,182.29527467160057,2.3098687532936704,0.27540839239270765,32.300817356068286,3.280963467794522,108.94461224254191,3.0,22.456444660612338,76.22361001120834,124.09577718272496,12.15867438089153
9.099999999999984,88,116.66384244494658,99.09319191000313,22.121687776565373,12.447697839429452,26.720058900696102,84.30464557506762,188.2025908559433,2.090748485544847,-0.3010787473074643,33.060029660581634,3.406348649679361,94.34866997062376,3.0,22.608069814230287,77.82264954682253,126.70172451434489,11.00634825232193
9.199999999999983,89,121.09954698311635,99.01671757250003,22.149477393957245,12.406692945399652,26.720071220525902,84.30460774574279,192.52968700856914,1.8885316178466012,0.14721545440115724,31.61264737069848,3.206195260082181,119.72333840060418,3.0,22.02628613755317,76.29975525629645,125.71625901244215,11.980883462608748
9.299999999999983,90,127.11152709231617,98.981699724882,21.852096528247472,12.402442295106052,26.720060706865063,84.30461598358653,197.56056007742447,2.615621844524418,0.5342897863197278,33.722169595552124,3.4362330745141842,139.6851595749392,3.0,22.860411040802415,75.57887174867645,137.8273402907993,11.8902628692336
9.399999999999983,91,133.78007598923412,98.92638407240771,22.352002590157436,12.425021157119886,26.720065243783118,84.30462635913908,203.42029579357578,2.3870737949317653,-0.4238222384660807,33.883779910064,3.4228972267725926,138.03780381283266,3.0,21.705829249718537,76.35212259535729,140.74760893081742,11.39050297960293
9.499999999999982,92,138.60844883490003,98.8273570051956,22.002939129714647,12.39022930484503,26.720062254331747,84.30459577670064,210.69695982007076,2.268593861660689,-0.7512736569328288,32.909131840647255,3.419943833600155,91.22606947695446,3.0,22.069823431931763,76.90560213473294,140.69163714080946,11.529522813361487
9.599999999999982,93,145.6783243249775,98.76628336712807,21.88706923336015,12.430345641756405,26.7200999609225,84.3046426768416,214.9942310391309,2.335554144628673,-0.7150848927651853,32.342194395972214,3.283343080951596,126.46738938373935,3.0,21.888700016761828,75.48106389617769,138.2024088134457,11.62797421737556
9.699999999999982,94,152.04843370435825,98.66861743484064,22.159173569014346,12.387325582726847,26.72007771717033,84.30465335431467,220.56413860095367,2.6241159264667213,0.2641572280686559,31.505556909970764,3.1970744743903445,113.92902170438848,3.0,21.745289830127223,77.07015590379208,123.72422196811553,12.264753105326891
9.799999999999981,95,157.75942665273405,98.58008141839375,21.500192064591694,12.40363360677247,26.72004498707964,84.30461409076696,226.71279992490037,2.8052766530182534,-0.1467030572163185,32.55278833438605,3.390214200523925,108.8640172092174,3.0,22.09527670161617,76.21420008585598,122.03400388868643,12.098649748467468
9.89999999999998,96,164.86337453225195,98.53953194693963,21.651122175494784,12.417393340503935,26.72005511535097,84.30460304495236,235.0795923281142,2.1081963961441623,-0.2633319738663379,32.70254968500345,3.4098629024429545,145.8518835773433,3.0,21.927546725161292,75.50351703330846,142.08541547798802,11.44274669903058
9.99999999999998,97,170.84670243516297,98.45225579639677,21.533115477968988,12.39835654748615,26.72010738387155,84.30463357557706,242.58456128773815,2.168264390233118,0.16961656969937186,32.41517943676237,3.3341430214460352,65.66450482990236,3.0,22.09112913471376,74.2742273838154,125.79476077889797,11.16982862843951
10.09999999999998,98,177.8705021206779,98.38906770100722,21.348756294249544,12.420499681369247,26.720050237857723,84.30460569097504,248.71386806201045,2.254280002657442,-0.4039775419965398,32.2850317837583,3.2710775090410555,67.30860193433405,3.0,22.425995340523535,77.54909267971158,134.66897499010764,12.050858826071742
10.19999999999998,99,184.37644157655143,98.28085677422223,21.9023190721664,12.424858214819755,26.72005254282715,84.30459710501042,252.27715409296394,2.185092451530418,0.09222694793451676,33.87358686313808,3.446665653792171,71.75702032629577,3.0,21.76683233691604,73.53986069002805,127.48200755487365,11.414558721604758
10.29999999999998,100,191.90350673961234,98.21611629303288,21.754095950585967,12.4212126542373,26.72003076137742,84.30461271639193,264.96358809280855,2.2542263524371786,0.49586926736243153,33.01228186676402,3.2504241295160545,97.02045042953854,3.0,21.764303070443006,76.83030899986422,114.49673392671905,11.78801712770232
10.399999999999979,101,199.15901224650491,98.14208736148315,21.834795768777923,12.380501651843085,26.72005503981791,84.3046088420724,267.9675491303062,2.605956870836025,0.6267721785338785,34.117775012289634,3.4826102034489934,80.7442632525183,3.0,21.462141009502364,75.22807178088985,138.53473888485476,11.585234373834036
10.499999999999979,102,206.0275517586955,98.04591007079256,21.344062857538663,12.420863419087256,26.720128042628446,84.3046267809611,273.5051287873732,2.381014068984318,0.35484210215698364,32.52363590183636,3.3443705243532103,101.12705028246576,3.0,21.806193785018003,75.5548286181149,126.29006279700644,11.090418512374537
10.599999999999978,103,212.86485011270955,97.96790035106649,22.283041259195162,12.388976698403216,26.720070330570582,84.30463271376048,284.4430171254423,2.5369951684042658,0.07453365110134225,32.69470233794764,3.371857986541221,87.90784764872319,3.0,21.391456523763615,75.21528837828701,120.85078918654662,12.17271625987647
10.699999999999978,104,221.2870062169125,97.87618089781658,21.465527035187787,12.39759139851933,26.720070866303793,84.30466209457519,288.6780354540927,1.7315232725515624,0.490532159285818,31.37261279846183,3.291048057058339,84.44448501856033,3.0,21.48805545496161,73.64455083030109,121.31172026074076,12.473384853670439
10.799999999999978,105,228.88758684853653,97.79981180062423,21.17155316048294,12.431467192631862,26.72009673486472,84.30464247676288,297.4542918037514,2.449952723295442,-0.6693426806429947,33.57160211438613,3.427177111103046,64.06793051459046,3.0,21.435995459535036,74.90115405318731,130.53000444525236,11.13742392705179
10.999999999999977,106,243.65780487728088,97.62451545630655,21.30743820770275,12.402996557245652,26.72006201257566,84.30466093884135,311.84485894980924,2.004201531452513,-0.12455873941631765,32.7039716485606,3.314613123408601,77.30844141008724,3.0,21.446997293414032,74.3107511924768,127.36942995674737,11.621794017603204
11.099999999999977,107,253.63448385007186,97.53217306965466,21.644287649744527,12.391603464490549,26.720064537988456,84.3046353219412,322.95012864678915,2.2342179651915073,-0.8081707235536004,31.61193649184395,3.35155581605078,71.03775816726474,3.0,21.05388000041933,73.4661058673946,121.52368351454692,12.350912273918041
11.199999999999976,108,260.92502737964884,97.41029002768012,21.25881752227402,12.396902902269542,26.720055232177753,84.30466393436681,331.9974407532896,2.023913112679961,-1.0705343432988073,33.413814121355735,3.492524147191568,90.17074995955659,3.0,21.427360038178453,75.60854753287524,127.76001273146,12.378774038901863
11.299999999999976,109,268.9599294246673,97.33150625885334,21.072255608539525,12.327610002983349,26.720057692887355,84.30463883884183,340.9536300616506,2.4190576569676576,-0.31233962360015366,31.894599063283497,3.189356785092759,99.11662684089983,3.0,21.47852474911511,71.74805272216632,136.18851925642366,12.043890969583037
11.399999999999975,110,276.4663245003661,97.23066466359904,21.325320617528643,12.372491576410818,26.720055037715014,84.30466279735431,347.17820688762424,2.1457880266383462,0.025388311527031047,32.34335934190943,3.3271306163635592,87.54786304391644,3.0,21.379195576434423,72.7146260525003,100.898497011872,11.585313183004168
11.499999999999975,111,286.74512365032797,97.1333430180088,21.665152341180768,12.35709125006845,26.72011013879556,84.30465515642955,356.721005413043,2.0489257404618617,-0.6578511477695014,33.495563775585225,3.5516064685840436,97.37601818585371,3.0,20.894846686396804,74.46479760573389,123.28883747271549,12.364037500858688
11.599999999999975,112,293.6844516284705,97.0198571574214,21.362792490999453,12.40107717372562,26.72010606124487,84.30466421627308,364.89120378382927,2.767747237958239,0.7918966007783317,33.29417838141734,3.3991578920922327,67.20424269192887,3.0,21.282525251137354,72.9164005076203,120.49486535299064,12.711502549009131
11.699999999999974,113,303.4313910166414,96.93616630057251,20.696087633700003,12.38153732768536,26.720088808486924,84.3046171067815,373.7629386102002,2.4298249258470763,-0.30444245121161934,32.62657510423495,3.3943164262366095,77.28864451592744,3.0,21.255045739464617,75.96203005612897,131.23362007565208,11.922494966983063
11.799999999999974,114,312.6996922772777,96.79808379947441,21.00873796126987,12.379202464915991,26.720058889010943,84.30464789035763,382.2273965808595,2.392605123012745,0.24191134659602442,32.9989878647716,3.3145446603622584,63.55846832201036,3.0,21.231116227927586,72.0908730164492,109.73906807925165,11.723168705961308
11.899999999999974,115,321.5777048349936,96.71067063798624,21.024006335343667,12.409823724862997,26.720068319215308,84.30463598487574,391.8420086075162,2.4168509964365574,0.030547142600794802,32.00071338831633,3.284839388538874,71.46252871928309,3.0,20.933191479478456,76.14183998181615,126.05015780995261,11.783865296342157
11.999999999999973,116,330.7853376562394,96.60397877178355,20.58921901722825,12.382449948342629,26.720095111027167,84.30466641063568,403.0637519996188,1.8189233496840904,0.7304088188368478,31.776223459155343,3.2678441859185985,80.36205402566534,3.0,20.551351755322127,72.51690770292049,126.16674414437537,11.328769022167108
12.099999999999973,117,340.17756564713153,96.50713033072333,20.8881487985529,12.39377767226608,26.720088762438042,84.30463500908995,409.12949236679617,2.4465563901856417,0.06304784809007297,30.643456834860704,3.18294834687589,68.23197298609513,3.0,20.58299632313754,71.84890977788862,122.31066640093621,12.489176086731879
12.199999999999973,118,349.16194423978897,96.3853945628853,20.815749979135628,12.371613492073198,26.72006342629814,84.30462196633178,417.5617388948154,2.6250510068164488,-0.02424968247557613,34.192627838007134,3.504628479092344,88.90888210979028,3.0,20.040122328994542,73.59022984915279,105.11948687452062,12.189899024336274
12.299999999999972,119,360.0662553103754,96.23945810191232,20.318866894882625,12.37986087040116,26.720059995699632,84.30465289611038,430.4294449064054,2.4361592277608173,-0.17439608079914787,32.02518222790706,3.2291508835275953,91.6741667778975,3.0,21.203878471620992,74.14712549672059,105.04795341313435,11.38722024800834
12.399999999999972,120,367.46817515548577,96.16013650298827,20.604857398152156,12.364829310135303,26.720072334754338,84.30465509976334,439.83839059861003,2.12263009583446,0.9271782563190193,34.72387135267851,3.516216955914663,75.52283077618091,3.0,20.732783151997264,71.77366093309642,112.42102248807576,12.110692729012246
12.499999999999972,121,378.8589899169732,96.044767607647,20.625665312491464,12.372451430156936,26.72006916596947,84.30465703487076,447.40490003561837,2.289658563165845,0.09638604327038075,31.70542729333226,3.2024904026461463,66.9385198827198,3.0,20.46920306626317,72.0125808307736,122.74970168640414,11.268484023925096
12.599999999999971,122,389.1850290453012,95.95616851594,20.362552287009255,12.40605316339276,26.72008247829599,84.30468304590502,458.2988725512412,2.1353626148233094,-0.2968589312127058,33.42100142093836,3.45634350195727,89.99105814560177,3.0,20.606041681361074,72.22144380875469,116.47086661749091,12.471279458031024
12.69999999999997,123,399.05774212172327,95.82232788897453,19.907114134814464,12.378281994179103,26.720109306655253,84.30464613928957,470.55813628536436,2.204895710500253,0.14222036022643847,31.44811535894061,3.2480725014636453,70.3364140334314,3.0,20.438107226942233,72.50820927649265,104.89588210304771,12.222212603737507
12.79999999999997,124,409.8417113606062,95.6894820156454,20.230489285750537,12.331114599864122,26.7201222435352,84.30468841200315,480.877155004345,2.366587312868786,-1.1541317251145888,32.22872900260952,3.3818301067775463,72.21674165566787,3.0,20.556463419576186,72.68966851341578,110.33081162011294,12.512588256110774
12.89999999999997,125,419.8755490385463,95.585613001286,20.14989579052813,12.370050185938524,26.72006931438131,84.30464512175456,489.9877329497731,2.4944346065175664,-0.5204157936002608,34.49022896147718,3.43272199307833,77.26448549190863,3.0,20.01230461811009,72.24364633053531,118.13319442070862,11.842601375857063
12.99999999999997,126,429.8453639257998,95.4372718290491,20.566606247189547,12.379855589082926,26.720100833880366,84.30463657780744,501.9728371345307,0.26858507618647165,0.22440346529459093,-0.055284940885086314,0.02803286156597567,11.819746443318703,3.5,20.46314153733108,69.86514722246011,114.48347989968647,12.838319096524023
13.09999999999997,127,441.6627258198123,95.32665584979254,19.99850725700259,12.36187059456748,26.720091153652977,84.30466442128034,510.4845858525324,-0.6059933292656396,0.04929640313117385,0.09658681793096771,0.017657566320896455,-7.0768352800562635,3.5,19.85115153724387,71.14249091026586,104.90224474256513,11.751849475816254
13.199999999999969,128,450.26952945075396,95.22646555908044,19.77705745483131,12.382626554370926,26.720042449222262,84.3046269957246,519.7506957069606,0.25478390102268356,-0.0760232521705293,-0.14765167375272698,-0.04001011744627722,-0.5170012037543441,3.5,20.050384346920577,70.41255871940547,115.37276256020175,11.980498682233186
13.299999999999969,129,460.4598766832221,95.11932138342583,20.182515424540536,12.384917494477348,26.720085035496027,84.3046593124488,529.1121172260963,0.24678356881209762,-0.08227516171027992,0.1956687132310725,0.013356997762873116,-3.276689403406849,3.5,19.379311711693777,69.54976176393568,106.99822519093648,11.909318598304798
13.399999999999968,130,470.76034647200225,94.99240836851538,19.549195371203925,12.369170478525879,26.720105035328604,84.30465359928614,541.7414366555907,0.3063796192862531,0.04194614245971266,-0.14097101725877986,0.031262308183757415,3.2682351655550392,3.5,20.021822123659298,71.5584165481435,99.74438497361133,12.17552002893691
13.499999999999968,131,480.4912204885373,94.8913819660598,19.68592819841461,12.391319915934847,26.720095772367447,84.3046596801146,548.73486951659,0.17647178151569742,-0.10474167930417767,0.2883275130688529,-0.011894630842299789,10.479104419572458,3.5,20.25216912782849,68.56519720798283,120.65783564091642,12.23394832054179
13.599999999999968,132,490.4674726618945,94.78233010855753,20.06637474501757,12.35069063777336,26.720113582328572,84.30465707643238,560.2117911850087,0.14507823416008467,-0.10902443758375428,0.12869406098878022,-0.10333065076226808,6.61754622219457,3.5,19.325568483796026,71.13514218353437,115.65628662485321,11.691684691669007
13.699999999999967,133,501.0682176417012,94.66080477720692,18.84447941067437,12.33843973781749,26.720092558093906,84.30464622589642,570.3176052637269,-0.09565032491307354,-0.0886826258920746,0.11899610859517329,-0.0009070871053850002,1.4320363406511636,3.5,19.58850459886926,71.0827368636207,110.51137258394729,11.074053991248638
13.799999999999967,134,509.40722066073295,94.5488860007867,19.568829301620713,12.378964372177624,26.72009470431739,84.30464725745347,583.0465138742694,0.10034196961063485,0.0005804678346742059,0.08466172506734781,0.009754059794430416,8.17297541463151,3.5,20.17228888359969,69.46319882934449,110.29459557497472,12.06419468879105
13.899999999999967,135,519.7216483201449,94.45404244998828,19.618347267422344,12.381204675151924,26.72010443340544,84.30464926316007,590.1987949001054,0.22791482926253767,0.08099469231054772,0.44177977764838394,0.07520128292460708,10.596144284273802,3.5,19.507983713126947,71.93180336869328,100.9728747774178,11.689090227823511
13.999999999999966,136,529.2007184283838,94.34043317762278,19.132940930298346,12.39550647094173,26.720108638453926,84.30462824080759,599.0483103392196,0.30457225282797473,-0.020354229019710117,0.13849522049879137,-0.02642923999621487,-7.109889905298331,3.5,19.67119080356431,72.15510175950772,111.70556326989683,11.431763375473832
14.099999999999966,137,537.9472124548815,94.24222237109946,19.559458512721314,12.375610629071415,26.72010186149329,84.30462381181607,610.2751963758944,0.25660107951918987,-0.16282196495050777,0.08114397407155607,0.0398430180704214,6.015014302235602,3.5,19.99443609390554,70.78662217365732,97.7185697108971,12.704669626950043
14.199999999999966,138,547.6308649627315,94.14344069120473,20.19440859331008,12.361469835460314,26.720071340756878,84.30461002675337,620.4777640086912,0.15211045770288312,-0.34953936692529136,-0.0852066345010807,-0.05677501792958423,0.9436124797516641,3.5,19.110907946093214,70.17364503162084,99.90649377022773,12.145922974787561
14.299999999999965,139,556.2638921141822,94.02169455948983,19.79862627188966,12.372890265915307,26.72007151267481,84.3046640354441,626.347435390922,0.09750226323417219,-0.28139135231661994,-0.38487708122685116,0.058210244676591034,-2.1214907009231343,3.5,19.125409637623957,70.58466308394101,100.31148472942031,11.959470802003635
14.399999999999965,140,565.4699705794694,93.91243997579079,19.219000136382743,12.375250933726768,26.720088988913222,84.30468553365588,635.1672738819349,0.3816947954346953,0.003679542975412939,-0.1571822441242589,0.035461963676791275,9.602219022361496,3.5,19.06663279604798,69.99965646018858,97.17809012441074,12.059324522788335
14.499999999999964,141,574.9415121374533,93.81541871062211,19.056573611091284,12.334827956328322,26.720089853182053,84.30462559279907,643.9541028749989,0.11551675304815483,-0.13276821578273637,-0.017510964048348447,0.04861766083749719,3.976741240782733,3.5,19.01782805316709,69.3310582170139,98.41275248795031,12.268730067250951
14.599999999999964,142,583.7164095931955,93.70306568422431,19.16645920071023,12.364714238026728,26.720105282950737,84.30465594484095,652.5495282580371,-0.10615100643604937,-0.035148111727538935,0.13525474072241506,-0.008400093969717921,9.341704247384948,3.5,19.96567916654076,72.76772352028034,108.87756219551352,12.760323220943183
14.699999999999964,143,592.7957383220962,93.63162392573038,18.807971664652115,12.376902547247461,26.72010444819703,84.30464228318891,664.098689804124,0.10044619862728121,-0.08467030649959201,-0.24226522323850253,-0.006909345489003089,0.2251194324935446,3.5,19.060188200504918,67.74969550875123,84.42161266314807,12.449042673043481
14.799999999999963,144,600.6007384300957,93.51949410047338,19.245750229732046,12.390616079462237,26.720106626420748,84.3046854578486,672.1091183021911,-0.018329375664282478,-0.13500576699978342,0.1341876371047718,0.024393967189618976,-0.739961901153984,3.5,19.47366255701625,69.99160704525872,80.66469836208928,12.22854478559189
14.899999999999963,145,609.8887376506385,93.41641323827135,18.632874559864185,12.32563623847766,26.720099795728736,84.3046553240533,680.3151526480166,-0.1813419107673639,-0.1583011559923712,-0.03792620375716935,-0.004806181023789789,-8.87949990895595,3.5,19.078510092308377,70.76915789431354,106.35095212950348,11.65822318202392
14.999999999999963,146,616.7435993808873,93.34339042913861,18.970180231776293,12.363596561529961,26.720103945282105,84.30468792582755,689.3211776823571,0.07437699597461836,-0.3880050753981617,-0.35705769308485535,0.011339175521212753,-4.149315241623345,3.5,18.649019231524264,67.93706021752774,97.19586182311555,11.522736366075371
15.099999999999962,147,625.9533482859886,93.23576366728193,18.99069140238143,12.38932191185201,26.72012017827159,84.3046697394486,693.6429968437096,-0.017963099438123863,-0.48408490098868995,-0.022163342980386393,-0.07975630267037752,-0.8620293480797286,3.5,19.226999540767203,70.65985970718832,85.3453518647386,11.53515875946957
15.199999999999962,148,634.6812361459697,93.13863161198294,18.963566927616636,12.388306800299263,26.720102745737528,84.30468223106895,704.5516074390846,-0.20429110310615528,0.031076421022811815,6.425612599242694e-05,0.058411200092691296,5.481395117693089,3.5,18.82029207980516,67.73034839440872,98.36587190243702,11.819041752233648
15.299999999999962,149,642.0294076879271,93.06604542066577,18.813969527695928,12.387220307587606,26.720082676137306,84.3046503867793,711.2897173928931,-0.22491571725524567,-0.04451515437550234,0.06655598705011698,0.0480754531948609,1.2769701278961179,3.5,18.925959476416573,68.61306514644825,100.87834330638618,12.390570419432322
15.399999999999961,150,650.8972120731036,92.95991605672762,18.87287695641468,12.345841583027253,26.72005205965185,84.3046302765554,721.0922528885613,-0.0739013851227655,-0.0013956686560424036,-0.1217371235373829,0.00848311725952262,-0.8599039140450557,3.5,18.54687705377511,68.2892502304786,92.52194238944702,13.274580438787746
15.499999999999961,151,657.9286841355798,92.86211466747528,18.898063076907764,12.349509522950953,26.72008777013772,84.30461541977886,729.7962618044874,0.15808203026441184,0.1368212440832955,-0.2978195429187207,-0.038675534788136276,10.615963546179097,3.5,18.605554787610288,66.70984734315033,91.73241225437566,12.255764071293767
15.59999999999996,152,666.8678685381989,92.76251554886166,18.605803323110134,12.339722662636865,26.720081332388535,84.304662308908,734.7019712674323,-0.2045602426518046,0.24195664633429306,-0.13555078429329648,-0.04395741100646508,6.343020286222088,3.5,18.97495344358351,69.84474528511036,84.7411308393706,11.525368927911122
15.69999999999996,153,674.2233355916259,92.67901596374266,18.737456249777516,12.339337250748407,26.720109997981837,84.3046689939698,744.9215978673654,0.05653624916205722,0.15535065452302488,-0.21653270818750212,-0.08005146747010763,2.8621127318987947,3.5,19.336457391028624,63.836341548094374,106.73750821227095,11.534682915586737
15.79999999999996,154,682.1703119482348,92.59755641417212,18.56121249744268,12.348088951408506,26.720133015691616,84.30462663683697,753.3928331279488,0.03091146231501704,-0.07992456426432289,0.16034505285602754,0.0400643673207832,-0.9506148126839722,3.5,18.35574845981459,66.33868763994782,98.20741463810943,12.24915156363323
15.89999999999996,155,689.3636249755227,92.53448417106624,18.258333184210024,12.358761448192366,26.7200807757433,84.30465065083506,760.3801326920201,-0.18468458860039094,0.2031787108565261,-0.07500791354645639,0.08121364013700556,-7.83861663390598,3.5,18.034168380455707,66.54257876464555,93.23897419730804,12.156572040635249
15.99999999999996,156,697.0836733157513,92.45389891252123,18.504304071509917,12.364023914870458,26.72003018661645,84.30467948048147,768.5556701027516,-0.032356570906823104,0.0580801058189184,-0.4403621499721039,0.019638823027607857,-8.302899092813192,3.5,18.703918715864784,66.91548513315014,109.05291188604798,11.676148507105806
16.09999999999996,157,704.3058000119568,92.34235360252748,18.521212634338667,12.337217303946815,26.72011426616185,84.30466726742779,773.9105957720166,0.18797780024176525,0.06190343096668044,0.1816975314854066,0.045547378648336405,3.6235793725899432,3.5,18.275469975795158,69.24809106170395,85.31997539516591,12.551297763758082
16.19999999999996,158,712.2790919580805,92.29216091220853,18.34132555869024,12.356652922739812,26.72008847758667,84.30465771282708,782.9428739849878,-0.05733118057324155,-0.29322226849253513,0.17317137281289469,-0.018094166276003902,-6.859573152903721,3.5,18.233924634182273,66.89491234186448,78.43952935337285,11.746325810483926
16.29999999999996,159,719.6228043867451,92.21573748530818,17.86263114523005,12.320854324152776,26.720122017803124,84.30466582336713,788.5398468888853,-0.23965589963258888,-0.2842818313949097,-0.31982568169970443,0.020549318305835323,-4.585753797885914,3.5,17.64407405750452,67.90724399963612,77.42550508635871,11.68115997533918
16.399999999999963,160,725.5410453177707,92.10817869667275,18.248475399431175,12.360395518509863,26.72006557647963,84.3046662148447,799.1378337507626,0.318816845145823,0.3111344160301195,-0.20114294438907332,0.006535302772182342,-4.861033973250684,3.5,18.322605271672913,65.84217874785995,78.38626628190262,11.597127698024133
16.499999999999964,161,733.7574661068537,92.03433812993597,18.296791860920855,12.358358847471605,26.72007863897582,84.30463223972033,802.2979246465168,-0.01356735913946941,-0.4330355598767271,0.2843083459257253,0.03267227835398677,5.916158741087338,3.5,18.28848429232959,67.85299983500309,75.0953007742518,12.325783686323696
16.599999999999966,162,740.0761031966421,91.97146916828805,18.405326741611518,12.356601861830105,26.720084161922124,84.30466565781643,810.7859651493391,0.24384520979548746,0.13326797824966877,-0.30170443581199236,0.06842231851235575,4.315004571175254,3.5,18.70883857941767,65.53490253573098,86.2258593366778,11.19739639885891
16.699999999999967,163,746.2264669605474,91.87365752736991,18.49365060107754,12.353361915480267,26.720095412022882,84.3046304162465,817.0814700331559,0.29636384444449904,-0.03487066820330138,0.13196618054017098,0.10768077647927538,5.887843477325966,3.5,17.829568021680693,66.62007631508574,82.86280503400053,11.981534275961495
16.79999999999997,164,753.148496591121,91.81960223901595,17.80786714944625,12.34489804145116,26.720090716007128,84.30462799841524,823.8148584396611,-0.02190473686055088,0.1574205067992422,-0.12674863735604003,-0.09189587250372322,10.633626712921785,3.5,18.165453546750527,68.01901036529075,86.47905168242592,12.698796233938648
16.89999999999997,165,759.6112484052402,91.73932727510032,17.58428139354242,12.359650716859187,26.720091433622443,84.30462439502162,831.4535484999321,-0.2884469669932378,0.27826471231495725,-0.06311336554222141,-0.033158540811422964,12.834299854645018,3.5,17.849946388318344,67.86796260174121,82.32782216743087,12.624883585464104
16.99999999999997,166,767.6159428370983,91.6653049849574,17.3812853391878,12.357199481315087,26.720095895148823,84.30465898343611,838.632145071793,0.1658919473396185,0.05199325170387714,-0.07135354217037289,0.09319887255850776,-2.5759035185797647,3.5,17.977721775376136,63.15999584461906,90.36921082420645,11.692544501334334
17.099999999999973,167,773.7774911563447,91.6007680304241,18.55371847753475,12.340062322002446,26.720109380209664,84.30463419643934,843.3007297221119,-0.12240742583949088,-0.03705615247277902,0.12276213433792103,-0.04666863504037426,5.2930210846680845,3.5,18.33458383691066,68.86292918487132,75.86001553954472,11.453152919497416
17.199999999999974,168,779.5012622985018,91.51846932343794,18.301488191722274,12.337843260833601,26.720100418837273,84.30465067471907,850.4528975277555,0.05050219270200843,0.2581900588315154,-0.20389355215595645,0.07868847180542853,4.687392824959301,3.5,17.83109888888208,63.341668322282494,72.1924570830752,11.992887242554994
17.299999999999976,169,784.578363881177,91.46836060115025,17.388770780209082,12.342676168237944,26.720109796148037,84.30463168689514,852.8789827891823,0.21344587188260258,0.13477225497837084,-0.3092879563157419,-0.04379766105747112,5.879667066382223,3.5,18.18475538018413,67.03364674609698,79.80666983943735,12.06104990877832
17.399999999999977,170,792.128812970916,91.39774201498244,17.940218933341058,12.343809590381145,26.72011200861989,84.30464396612919,864.4174707257574,0.26227403985765985,0.22410466329518874,-0.11393340254238131,-0.008477279587170993,9.331414981552182,3.5,18.215565918097056,66.44733693896225,79.55362014090694,12.457611044698991
17.59999999999998,171,803.2505231905801,91.24173506353546,18.321461445876757,12.330061841355437,26.720087779834326,84.30465976071142,875.1779577104094,-0.09683642785836823,0.017569841170206518,0.18726872811532927,0.054255791484908666,-1.7201135098854312,3.5,18.546574217627928,64.78191921153314,77.86698066474858,12.592392217193058
17.69999999999998,172,810.7584142138279,91.20455042883702,17.52111140742999,12.357707070229093,26.72006840737399,84.30468736739303,879.7576379883513,-0.08785570812940506,-0.030509865985889048,-0.04961483315688564,-0.024272473230616952,-6.181570709156855,3.5,17.59203804923623,67.92793572540393,80.33225446487467,12.267536264920551
17.799999999999983,173,814.6807016841311,91.14185799734236,18.13145264772219,12.33757783398266,26.72008303233478,84.30465684622143,887.5573175931341,-0.2755516137938586,-0.21612842517544456,0.00421212538104257,0.05414144476093697,2.0364480191932186,3.5,17.915994551650066,63.965079100041855,70.54169149815131,12.349840170901267
17.899999999999984,174,820.8539268656378,91.06261719258828,17.23609214153904,12.395404255318155,26.720116222013413,84.30469526528262,890.4649234683858,0.2207132679352309,0.0454901867997522,0.04533015862001301,0.029909530287619418,-7.35956555271278,3.5,18.17480966515982,62.96335412171687,82.68116309928955,12.271136000050548
18.19999999999999,175,835.7771665460278,90.89586191519841,16.723354922724223,12.364853598599526,26.720086237304585,84.30466086778188,906.6973809500589,-0.04999774983347363,-0.12372629755527025,0.11995850045185566,-0.006028329004800933,2.5554852058514643,3.5,17.94309810823162,63.85366858683115,73.7217522328559,11.181248399461508
18.39999999999999,176,846.8408561440692,90.79834894804783,16.90647900942169,12.340233836660119,26.72006946578024,84.3046410808972,919.5162207245858,0.23427186338162426,-0.20244439590095895,-0.46952633579510544,0.09085331056074458,10.830430791604346,3.5,17.80676290382433,65.24138592973006,76.7708723921094,11.863498218262553
18.499999999999993,177,851.6453212815263,90.74023769344494,17.510072027602632,12.349712648530176,26.72013918806605,84.30464875461065,920.2688230151225,0.07113399744959673,-0.1012680966558746,-0.1419561157144736,-0.0016334227927354422,-0.23785008768946583,3.5,17.0928108229005,65.35600161453213,84.11239465546603,12.12412013379099
18.599999999999994,178,856.6826181489299,90.69338838577033,17.453059303391065,12.413119672435675,26.720072227714848,84.30465546807675,926.8629696386428,0.19133564909883632,-0.059204363718128254,-0.4077595163019685,0.028923278802470864,0.02492762721689956,3.5,18.01996918277656,64.01773245997715,73.04967845245135,11.372021078783902
18.699999999999996,179,862.110867788537,90.65142578501954,17.731528614425084,12.35691788252597,26.720108408770265,84.30465881933162,929.9899135103028,-0.22354431168779715,-0.3258599620795908,0.15712194086904013,0.07056744168791075,4.491725387974012,3.5,17.687823080153063,64.96627730033349,71.42112327700343,12.553167943788372
18.799999999999997,180,866.3500575780756,90.55483254312085,17.546910730757624,12.357931151196171,26.72010448761367,84.30462364365113,935.5810226654194,0.019741551891691585,0.033991739675021365,0.29233579307814084,0.07626674590456459,-2.728848675723191,3.5,16.970693654772727,65.71245682919438,81.23953787459617,12.400987247233045
18.9,181,871.7213936613365,90.52698618643926,16.79390489304053,12.325970200585996,26.720118859132207,84.30465155207703,941.8970701687246,-0.26115521308321693,-0.03451989296836648,-0.26718427016443586,-0.06049330174907991,0.22269121945668413,3.5,17.56084986540471,64.62253763437278,68.30959797609185,11.934654048919736
19.0,182,876.1382558411723,90.45457114777473,17.4553171228357,12.340332506406032,26.720051692662686,84.30463433566815,945.0240164879843,0.17096157882275792,0.27668619807970196,0.007471872080614117,-0.007009006206272383,8.482149320706663,3.5,17.68639396656691,65.48194892853506,66.8390021780642,12.003694533802248
19.1,183,881.1523775253137,90.42230161874828,17.73669796158483,12.338958961909642,26.72008314756229,84.3046652292792,949.8831727706723,-0.0005518887301168632,-0.05644717767304869,0.009672095278645088,-0.10581155111511462,7.133329922016354,3.5,17.790250626825635,63.02838610604241,62.64948759449052,11.687895003023895
19.200000000000003,184,883.7806774378324,90.34980757045562,16.90580301817789,12.368692749386044,26.720096157587427,84.30461755487674,951.5904481079816,-0.0372903420501569,-0.0864786938348194,-0.12704117480431826,0.0603004065784499,5.034080889070032,3.5,17.573201215955944,65.13539815138124,60.963264000113035,11.256198650961103
19.300000000000004,185,888.6360197190379,90.31008388616864,17.703451776238097,12.34360025944009,26.720133952985513,84.3046260825047,959.6644004937559,-0.18236876952991254,0.01425768733369594,0.029303813685057245,0.10380378065995322,3.033230907312698,3.5,17.155330908869633,64.11648813816481,66.07132959368118,11.967238627925623
19.400000000000006,186,892.8881046342806,90.28668239684785,17.236810524337937,12.329726129043106,26.72012103145565,84.3046439278499,962.5188081915145,0.4742588490293051,0.037878972927308546,0.1775053651337267,0.041947575531735025,9.534814272628592,3.5,17.257729112705263,64.16819102131251,81.15608320452563,12.215248855439865
19.500000000000007,187,896.6533719760874,90.26330584885808,17.74746005409178,12.39259496672731,26.72007188220344,84.30465960849021,967.5597048878265,0.2729319896560999,0.0072904916989459945,0.14087489657236285,-0.06730437245656733,3.447357499887973,3.5,17.381815315170662,65.03483765024885,69.97569069063516,11.758571820306734
19.60000000000001,188,900.8798527188798,90.19336961036105,16.63153590284006,12.353216971530086,26.720107071988338,84.30463804548238,972.4077705200973,-0.137076915125081,-0.3232894254944358,-0.1708197922948524,-0.046893413250098534,-4.998479519576795,3.5,17.67908729704339,64.32062136205471,81.68000066495237,12.089487428803551
19.70000000000001,189,905.1273936184161,90.16406964675781,17.15646844695064,12.364939071759094,26.72011805719489,84.30465911778116,976.942301809525,0.09761897364916972,0.1479738754724107,0.16755889620115622,0.006742502589443087,9.417228471484032,3.5,17.279682353088244,64.59124585156341,66.68680266641772,11.552313145549483
19.900000000000013,190,913.1062758165148,90.08645383515034,16.88917979963277,12.342338389950205,26.72010199298815,84.30470616936864,981.5936026597755,-0.06612329065478328,0.09996750592954248,-0.012459300662763406,0.0028678754863818044,3.4524373875895695,3.5,17.03139142742469,62.332242813156874,69.6233125285402,13.006272731679182
20.000000000000014,191,915.900880267792,90.02287262075741,17.033270433367996,12.354794192401343,26.72008852475913,84.30463123937889,986.0845431486035,-0.2946000444285203,-0.17782691587717436,0.2453851682119127,0.06654644417968492,12.270968421518361,3.5,16.962605945718213,66.33284877120929,67.72669239048163,12.395709717558603
20.100000000000016,192,918.8647666380871,89.98621104685635,16.801800210988475,12.357917267903277,26.72006678325055,84.30464671677166,989.200925605814,0.02238913322908964,-0.1682046526337666,-0.10548289033088647,0.00930624767129385,6.171274002444193,3.5,17.070591849043712,63.91017851308192,80.70898892606463,12.35667582412449
20.200000000000017,193,922.2947117723853,89.95155750839928,16.496949419946667,12.335034603595272,26.720087915374474,84.30467933572243,995.4115660379275,0.062342744462990624,-0.046284422300777235,0.1764278634160824,0.043388212767613885,-4.630070074237032,3.5,16.94183632147114,64.99091252206235,74.53996207036052,11.827717048648749
20.30000000000002,194,925.9530240543345,89.94145966229893,16.420573336124317,12.341408500380004,26.720100909422268,84.30464478906592,996.4454204722304,-0.24354634002471348,-0.35565000468952046,0.15152198671993294,0.019029010033913354,-3.770705977710034,3.5,17.188969857305757,64.32762565056643,81.30401438454355,11.33929950609505
20.40000000000002,195,928.5798984653554,89.90161131805466,16.768360800453085,12.314742329531208,26.72012756556682,84.30465911640361,1000.8205988382772,0.060153476328378835,0.18983933315593515,-0.34897152364485495,0.1266840344200529,4.454444847089449,3.5,17.238163250347778,64.43106588069709,81.91815739417157,12.342353512648364
20.50000000000002,196,932.1964483569958,89.85678688738412,17.164620233389392,12.352202724507828,26.720082969692402,84.30462704430299,1004.0449055120266,0.040651616981880745,-0.16026160074213722,0.11154996948672341,-0.07377568237886295,6.6234754192750085,3.5,17.109519900116364,61.563978238198914,70.78997216983777,12.521770819682114
20.600000000000023,197,935.2757138565446,89.83325429728308,17.338153391268115,12.36269985540496,26.72010308602822,84.30464382352643,1003.4236364152393,0.44691985691759273,-0.24380415460733032,0.3042961189989419,-0.0030057887487533637,5.840005496578385,3.5,17.179060792387116,63.70427243246867,70.4708432292811,11.726496089837191
20.700000000000024,198,939.0453932809545,89.78481466715445,17.16975065389842,12.376182424368233,26.72010950041409,84.30466773521341,1007.7329954048778,0.1559559619391901,-0.27101284840368906,0.15770606115783892,0.013901126410888504,7.470588422901132,3.5,17.207841724674626,62.32541998502501,77.61266286034676,12.345806993659997
20.800000000000026,199,940.692879897914,89.75066173114321,16.642930003891667,12.339088133859644,26.72008688076765,84.30465301922727,1009.1895730842689,0.263838809182681,0.1697289741525305,-0.05380134039899152,-0.02683933549772195,-8.35230054370975,3.5,16.499125268731998,62.67394627149944,68.12234131760694,12.326617060637625
20.900000000000027,200,943.866544447487,89.72741980391497,17.038447772215335,12.337773093230082,26.720084331278212,84.304619606311,1010.704289809023,0.2713768915614915,0.06647055080603712,0.04119319207568684,0.040827039503959765,6.19625902396855,3.5,16.921037077113073,63.20901274321434,68.3350286823489,11.871828074524508
21.00000000000003,201,946.8264477732118,89.69133789068623,16.796321362213583,12.316044076869588,26.720081952007895,84.30464867444483,1018.3240362711114,0.1298339317956387,0.10515138530074013,0.1796053121087339,0.06565826366459497,-8.242093027458003,3.5,16.41749032889385,65.10438674767448,63.67256784586887,11.98348860494978
21.10000000000003,202,949.0172995265957,89.68165506904111,16.82314211177967,12.324727292887818,26.720078782651907,84.3046362799023,1018.319360179767,-0.09669701677213592,-0.04640648083986605,0.11780880814033447,0.05868847018882536,9.550772696849924,3.5,17.010680063087925,63.907549893103585,65.38238962341607,12.487088434536824
21.20000000000003,203,950.397152943039,89.62407286432948,17.272427345594746,12.35394809047878,26.72008351052974,84.3046792877904,1021.5526360377812,0.19695598133166045,-0.18040264432674194,0.2757445322838839,0.07199573720639223,-1.2447311259747595,3.5,16.65246801561895,60.34064901609624,74.74467736933485,12.829666397898709
21.300000000000033,204,953.3799255169299,89.61762344543106,17.05787940102442,12.325426634370737,26.720133925988424,84.30466142966021,1024.8895006870782,-0.19325836201553864,-0.17580608913811968,-0.2334583880742943,-0.015578120935965303,-1.0395220977513857,3.5,16.60325510549043,64.23874587813538,65.47472661774464,12.050377415884169
21.400000000000034,205,956.2146551753673,89.59298593534827,16.603586542369815,12.351501799017207,26.720084286774792,84.30463182115766,1024.7507851418607,0.0766440468876333,0.007668758952092292,-0.0026734782190846185,0.03498128942988958,-10.304164578579533,3.5,16.24193080076773,65.34280647590967,61.04764661907771,12.201482618665864
21.500000000000036,206,957.8883248791324,89.61311947947027,16.951582423367356,12.34269491768642,26.72009657027738,84.30463707759031,1026.3020542067327,0.09642234467906668,-0.271492000317895,-0.04060051974549064,0.0369899739602597,6.73643986210808,3.5,16.384085558940647,63.09419904836491,52.50520908044076,11.894704133145494
21.600000000000037,207,959.6216013939847,89.5752918847345,16.994389392044358,12.34617656129454,26.72011526667608,84.3046416249218,1029.3200649600994,-0.21751811234063673,0.10036381053477636,-0.016187392931425182,0.012345639100975529,6.893766584968192,3.5,16.083704742966397,62.871336159855595,57.87757873549838,10.762690358909026
21.70000000000004,208,961.3270635218025,89.5327326524555,16.573056854070828,12.329405075011548,26.7201088064115,84.30463791760903,1033.738003238912,0.2082673228524276,-0.1791238270524616,-0.39150574051048165,-0.01857340926454034,-3.0176688774110745,3.5,16.627565985725486,64.67743504727841,76.07351649791474,11.492218039597416
21.90000000000004,209,964.9364197153282,89.47972127470607,16.623059436293325,12.320029113291218,26.720120581695483,84.30466275785201,1035.3894456011376,0.09681397978070427,-0.040348893470247796,-0.006667873761531898,0.04292684091952874,-6.781146501664734,3.5,17.103854093792545,65.60764450955047,61.55559239696379,12.217164243351116
22.000000000000043,210,966.1564840586337,89.49132646998744,16.891098662362005,12.323065180656704,26.72011137684319,84.30466509908904,1036.4950410704053,-0.006209829325676736,-0.031254908298993314,0.05568861207811616,0.014032599747166766,-3.846455743218396,3.5,16.40682778654956,64.14751869377093,58.35180376893414,12.83500399654073
22.100000000000044,211,968.2597210751684,89.4667619342469,16.601593170640715,12.329499512327395,26.720080955466386,84.30463923112266,1037.1086862109235,-0.025214749409489645,-0.4016705262590851,0.2541844407732111,0.06997065492401534,-1.4432381697213246,3.5,16.699635452465206,61.094510210671935,55.19924899360353,12.145647937799579
22.200000000000045,212,969.0755227451136,89.4505466445012,16.47411069379608,12.339390711935671,26.720102057551514,84.30467150607342,1039.687947467077,-0.16392716532975782,-0.074311604277149,-0.14129290035266462,0.08085857274934802,-1.152886284420945,3.5,17.18470071085373,63.740424367395455,80.08647086364928,12.371692214261873
22.300000000000047,213,970.8703436606987,89.42247564248943,16.63810399838103,12.323207855858785,26.720053119433636,84.30464305651806,1040.7524148555092,0.1692550781215751,-0.11014964698371218,-0.0021457193068186026,-0.0037995131021913812,-8.118176075347163,3.5,16.642760620041532,63.00816203084829,48.82343616621286,11.390070381441209
22.40000000000005,214,971.67552856432,89.43445097898618,16.493890622931715,12.323512198979627,26.720098848234553,84.30466376200502,1041.0822514753243,0.06142209106043105,-0.08310656429439414,0.018376251251954148,-0.008049946642464643,10.85398228933096,3.5,16.622869194616094,65.18056844827424,64.88915749091666,12.305711141347103
22.50000000000005,215,973.3676400906486,89.40803106427005,16.262221630899273,12.340901497079953,26.720051518470527,84.30467162343503,1044.8552320045148,0.03946166901789411,0.029212848074967972,-0.0501118039716573,0.04489494082443583,-12.382009695629383,3.5,16.82942722517634,63.66152851678613,65.53178126111399,11.446094980960131
22.60000000000005,216,974.2371109369215,89.3771783865272,17.143239760747623,12.3362244715911,26.72009087171201,84.30464024565585,1044.2524834994795,0.08500884682957092,-0.20230612923295,0.041912495999309934,0.019484751065430947,-2.0330845197663905,3.5,16.689783455739086,62.18349165313961,73.79662747002895,11.000806740009418
22.700000000000053,217,975.0718292511523,89.3770920195951,16.1880617789145,12.388296437868748,26.72006662112961,84.30464578115664,1047.0045993489325,-0.0008256860657433335,0.0646097854730629,0.016683376958145826,0.027271337471709775,-3.287710964057294,3.5,16.771962623896567,61.6118317443407,67.38056247140692,11.384609208936176
22.800000000000054,218,976.7345181173029,89.40519003457604,16.206052102017807,12.340653544866393,26.720087118652604,84.30465682236255,1048.358256025929,0.28763336518969035,-0.04731607967453104,-0.4139872438961963,0.04060046095482998,-2.901449364700472,3.5,16.430592720866258,61.582883517351874,63.94651712572531,12.574978419308632
22.900000000000055,219,976.3032022821998,89.37264985950114,16.46687627833435,12.349117618669789,26.720129193768862,84.3046468909408,1044.86477691861,0.11652340214291307,0.02100520917659704,-0.006460797555215982,0.06238455875895815,3.399313147005039,3.5,17.093529396872217,63.08484395914594,56.22196222363548,11.692635372301359
23.000000000000057,220,976.977311133957,89.33984149030478,16.553746451950552,12.30002311330523,26.720059441534207,84.30465095490078,1048.4138353778535,0.23393261056335152,0.009431427573844603,-0.08663184653771974,0.06688237128679311,-3.3284394777367536,3.5,16.995646665020626,60.07360875295976,69.51463849444788,12.314349889315372
23.10000000000006,221,977.1110878291146,89.32472628570689,16.854248324941338,12.329978188142226,26.720070669416742,84.30464956592118,1050.3296123450884,-0.1509352101969092,0.0037918867213496132,-0.024623043319274347,0.07182597488449526,-2.6789562425068403,3.5,16.801550060006768,63.939091660023415,67.83776885749015,11.938218581152956
23.30000000000006,222,978.2602488564711,89.3310055419052,16.81293723625101,12.329884818870864,26.720119755185262,84.30469992125357,1045.2101310740245,0.2709866445607522,-0.3253030474185206,-0.1811873355470564,-0.011021786037364426,-0.5793739082873901,3.5,16.584349358098315,64.78956781843571,68.30214415397705,12.269556340377537
23.400000000000063,223,978.2929743910946,89.34535507871337,16.36449834093029,12.360078377308664,26.72010285949783,84.30464820256265,1047.8410736897156,0.05481678416455277,-0.039385178446995545,-0.11547387390389269,-0.025463304439209196,-2.9578542313433793,3.5,16.80128649840437,63.58222189541624,63.79878946591702,11.476218732740453
23.500000000000064,224,977.9570945797462,89.35018796583859,16.756358205469954,12.314053269051504,26.720097106006527,84.30466115748104,1049.7088773652047,-0.1914966249122513,0.25033362964413497,0.1162064917501732,0.06657086988730397,1.9385059499501236,3.5,16.17954376309808,61.9356902720667,59.47242999091433,11.369456466738363
23.600000000000065,225,978.3737423313396,89.35176118784386,16.674345254761356,12.365080953093326,26.72014433165187,84.30463800868868,1047.6259375072987,0.15538085050497458,-0.029869042275107033,0.032715976280068025,-0.025579621757993273,7.63366206051869,3.5,16.43863474718562,62.551193876487275,76.78414930282156,11.248926592237307
23.700000000000067,226,978.5282646480105,89.35585105850018,16.660199178558894,12.326489952754468,26.72008648659724,84.30464473603924,1048.6414933710448,-111.16263866978495,-27.01948796926235,132.3362659665256,17.786063672209853,120.62784657763332,4.0,16.193256890312924,64.16296731120954,61.022349663772474,12.093825288780492
23.800000000000068,227,978.19257974252,89.32492505181553,16.712453156635114,12.341867282650103,26.720112811435207,84.30463386784682,1048.4530454421963,72.09294505372064,95.58840829827872,43.34320543551001,12.913225607223842,76.17689720131176,4.0,16.292200177573566,61.47691458427174,60.69815506861872,11.703905097131639
23.90000000000007,228,978.4871744969141,89.3549398293465,16.540026001288822,12.29496787567149,26.720075313601317,84.3046425122994,1048.40988079952,31.62206397436869,77.89797687712392,-124.7727804491839,15.343045361451793,178.00921815973112,4.0,16.869620958530568,61.87209111471626,77.89097794965923,11.50591096767837
24.00000000000007,229,978.161809446942,89.34467646339829,16.81171168841201,12.323510119173745,26.72009658924361,84.30466289000238,1048.5510374690502,-114.13640980460727,102.60431862166364,-159.86416376374288,22.529853991666652,172.23814629529272,4.0,16.426419879632306,66.87273348965601,68.26769178985974,13.10016129948147
24.100000000000072,230,978.147348697163,89.36911341793224,17.240415690185795,12.336518558559503,26.720095361895943,84.30467359698059,1048.9176962962474,-106.92742134307501,71.7744186395493,-1.7559365784000667,13.18121159044842,116.18814718363544,4.0,16.03290914442518,64.47864418329897,65.91606188876861,11.62403892331415
24.200000000000074,231,977.7137788368844,89.33755366391547,16.711765518225707,12.332662060990826,26.720086916042966,84.30463150558374,1050.3354230688428,40.47308148095333,-19.11365970183274,-85.15540176886134,9.848535722572615,136.77285346218096,4.0,16.676121803137594,64.46293431693339,61.41590997791767,12.416742394418947
24.300000000000075,232,978.672097894435,89.33479062226742,16.897559770533654,12.302665219860694,26.72011228357709,84.30467199262328,1047.9482605596181,-12.667460803263083,77.8294527902576,-67.29890796042633,10.506331573664378,145.08213939877817,4.0,16.603624307964747,65.00701636353064,59.02771046993807,12.731881603870788
24.400000000000077,233,979.1379051157151,89.36732262720142,16.864169753356645,12.367809681186174,26.72009294441853,84.30466675135156,1047.8710065643777,7.065956968434926,79.75474689201323,119.28481455746787,14.595676001771935,72.28176235688083,4.0,16.14622023028882,66.78130369318643,72.69493437583698,11.959863490788223
24.500000000000078,234,978.5846669169575,89.34983701232136,16.758125246527282,12.306710367585971,26.720108539724635,84.30465322136831,1048.071844737185,-0.9280048624009725,63.64649156137628,106.90143971940633,12.757200564603153,132.8191419699455,4.0,16.727718827095668,59.90097839229839,63.36640427661399,11.396423528543197
24.60000000000008,235,978.6876517206584,89.33701859816257,16.407670991726345,12.31595688475409,26.72008238266204,84.30464451432364,1047.7022447274983,57.461226290492476,79.54837992023279,2.7651218202133863,10.07180618989292,110.93387414452958,4.0,16.253770002419085,64.87295025332634,62.84768299072571,13.443357714342977
24.70000000000008,236,978.0682526425425,89.34576992772243,16.534835823195714,12.317896063297756,26.720094254576832,84.30460560220077,1050.4545024694987,22.9578539507693,2.4962132735701412,-10.939009418565076,2.6574886165620373,55.12935707934529,4.0,16.85468230269867,59.144552304706636,77.01175177625971,12.097633172708456
24.800000000000082,237,978.0301805452285,89.35430206131578,16.396339136979634,12.304824135735116,26.720132865940286,84.30461395697336,1047.56783164178,-23.238259367118676,-28.677135138470305,-4.845901183431516,3.833991321655311,64.7248357696908,4.0,16.428966293645473,64.95272029382332,58.626040766141365,11.501767921424534
24.900000000000084,238,978.2612860205389,89.36561261635522,16.77747433265812,12.33881119942928,26.720109052674456,84.30464962284265,1048.668841069912,-32.722645705698085,11.378659108547192,1.5151893084324548,3.522139096603423,124.38228603672886,4.0,16.42439288786644,60.62067092488612,64.58388519326775,11.44268716067011
25.000000000000085,239,977.7696672327502,89.38020183224651,16.389665709030186,12.358649618708945,26.720133055227578,84.30464531009419,1046.0201713333176,21.851720131498396,21.667260350920717,-3.5807229874368445,3.194384312547897,108.08897237879185,4.0,16.452553865015815,64.4389952226941,61.02721439771537,12.494577185178148
25.100000000000087,240,976.6687967713867,89.35280804379556,16.5505406849377,12.328746462185416,26.720078779792143,84.30466137792286,1044.8100359514021,-31.295485970338547,18.071707015027016,-48.24915412899982,6.241578583188022,90.98567204185758,4.0,16.76991485187659,64.59015243354354,59.04564100323999,11.692571252408213
25.200000000000088,241,977.118335109473,89.37332714470386,16.51354634297887,12.308667401742198,26.720087610571536,84.30465136227376,1047.616692828395,44.77026949174869,-25.380849328694655,-25.53611585926034,5.865180518179571,30.661071866571966,4.0,16.961633351150915,64.16992659324768,67.278781966085,12.896560560227522
25.30000000000009,242,976.4388680243248,89.3798167739735,16.91104012553909,12.322851906645182,26.720085050838957,84.30462794376788,1044.4999406919148,-19.787654972915256,-8.446372259966907,30.248239674644072,3.8051432247338117,40.99119712603779,4.0,16.552310445897344,63.827294440265725,68.32070027173137,11.677957565879492
25.40000000000009,243,975.2271416493237,89.3701489483143,16.626068229663893,12.31052655314409,26.720074124140265,84.30465383648215,1045.382112918849,24.256808793033716,30.12319389650886,20.339109625363392,4.549676466762411,37.02454571342217,4.0,16.92185453849813,65.5100511103335,73.41166785424966,11.452240162089785
25.500000000000092,244,975.0073709267725,89.37252316943045,16.549097842064803,12.329083742070658,26.72007450003985,84.30466039312766,1047.072840679145,31.206135598030258,4.232912942134352,-39.725819131204936,5.190005172380771,29.369937928254465,4.0,17.160943912181867,62.315808503224915,72.1592423806478,11.233588949107384
25.600000000000094,245,973.9918289570439,89.37680909330506,15.997836558158259,12.330997547923314,26.720102946676292,84.30467308244596,1045.4730119212238,-6.347106773318887,-20.758193925382095,-52.66431505066722,5.86304692267809,28.520473634410255,4.0,16.229123035815928,63.99056749517255,69.04633676204045,11.816520501272386
25.700000000000095,246,972.306270561838,89.41281997955524,16.42455191474873,12.36442583506016,26.72009288467625,84.30465315425046,1039.6317208035246,1.0228961400130216,-2.0054859404271195,8.515396309790573,0.8526426102844172,34.65527530358495,5.0,16.231706199197028,66.09495967315657,60.24167943906284,12.069800502944128
25.800000000000097,247,969.8215930770292,89.42803593724486,16.991285816333697,12.32255706048523,26.720109092699442,84.30463237573056,1042.9207476289562,1.032415515684445,-2.2568052508797,8.423096779260694,0.7962935536289096,41.11415862636028,5.0,16.777753198684223,63.38008622534845,68.02716489742525,12.734854211405747
25.900000000000098,248,967.0875324801294,89.45447100451763,17.063064276544488,12.319187842829868,26.720086090857382,84.30460705758357,1036.0539286557748,0.9104506389792618,-2.3233044652828267,8.16357301985287,0.8150526385600005,34.609403585577134,5.0,16.706381399670207,64.61040460667029,58.78323517942332,12.452009144935628
26.0000000000001,249,967.3652000540534,89.5017657840487,16.51952368584835,12.307060052178008,26.720099536449112,84.30463478263657,1037.057238742575,0.8717408112986957,-2.5523598038211084,8.339472450293126,0.883705079521664,36.129300441513706,5.0,16.878699424206378,61.78241580401228,55.83293563494506,11.459425337569595
26.1000000000001,250,963.6813622988625,89.49914080870165,17.230354315945753,12.325658522695896,26.720100460649764,84.30464824385236,1034.3333793146096,0.6236649311303222,-2.1910758077396237,7.998541272299263,0.821751984679271,27.743989761797643,5.0,16.46434816172461,62.11810439627948,70.49779448673239,11.818381104439878
26.200000000000102,251,961.3161573914063,89.52771792596282,16.473438348806553,12.31227573422065,26.72010890706294,84.30466248146139,1032.2212632002663,0.7340277707247612,-2.6725786603603114,7.986985539421591,0.9033143668016537,31.018888986631772,5.0,16.98395385348376,66.61895471137288,56.312574526662566,12.413104176848941
26.300000000000104,252,960.6039589513003,89.54587626484765,17.13189337704187,12.313284015779491,26.720073934693193,84.30464881005099,1029.7703046703803,0.5543106291748744,-2.373138299447733,8.078688185371382,0.8529395027065865,33.19142838183829,5.0,15.95191232535157,64.10007202226419,74.73932680905699,12.299682849030596
26.400000000000105,253,958.3452597388373,89.57331837902288,16.253367280713846,12.316482821006318,26.72008509630577,84.3046470682878,1026.1044050766689,0.6401114857619258,-2.57098308248987,8.0121456470729,0.9564068307557853,31.60922906624345,5.0,16.925727740506673,66.70181772965982,65.25092706758392,11.790842703748812
26.500000000000107,254,956.1163853554597,89.59699010039563,17.34777816408795,12.307152076910901,26.72008485379284,84.3046776004184,1026.2582040848918,0.15911963471135399,-2.493890278891245,8.005266994631766,0.9079761921032041,34.010107581067,5.0,17.05407928718153,65.14898365863279,65.43432448428999,11.56574615644854
26.600000000000108,255,953.4636426964447,89.61847133737169,16.923629141325744,12.342526837754543,26.72009886297818,84.30465136417413,1025.9760892689615,-0.06179772391384736,-2.5102297737212846,8.060978488729175,0.7496243170597536,38.568034620440145,5.0,16.83837327349548,64.97366179181854,71.49088080117323,11.917378921844039
26.70000000000011,256,952.3088845881063,89.65322984228959,16.54505454568165,12.349094098934186,26.72008730578525,84.30463583240727,1021.6165029394128,0.3473064239160626,-2.623875056117395,8.126554552880085,0.8354182678279574,36.502792149651356,5.0,16.612360588661687,60.53237429757025,81.90584630510519,12.065497162749018
26.80000000000011,257,950.536505486882,89.65588800134407,16.835432480245235,12.303054482124239,26.720079115868774,84.30467182287244,1020.0967404233311,0.09132638861045067,-2.53261017900258,7.603318333559373,0.857987163285844,34.894162107476205,5.0,17.018812349475894,63.80246368756355,76.46589765318656,12.40250688409072
26.900000000000112,258,948.9291329611001,89.66325037914227,16.544253017384232,12.319185763252385,26.720096949008187,84.30469248341379,1017.7855372006823,-0.0803260391592486,-2.5238711329768644,7.661625636437224,0.7781115678508995,31.63373639271714,5.0,16.375370802297123,63.42082989363864,74.3143838642256,11.859765971064379
27.000000000000114,259,944.8071846706401,89.70695162824016,16.854830094855284,12.318467485333517,26.72009679375886,84.30464443190226,1012.8837552702425,0.04976453941214613,-2.404672853153947,7.809285381974722,0.7914309033820525,29.039385147142905,5.0,16.448806847889497,62.32538721701177,69.41848734881493,11.44181676970414
27.100000000000115,260,943.6592350607633,89.72800202926624,16.714041805950487,12.340334341867653,26.72010909047125,84.30460691628426,1011.8927032259116,-0.3148425256718651,-2.4663637298077106,7.808665300002311,0.8810481591585375,36.75932684659914,5.0,16.809921882028775,62.48094814312641,52.38209087022726,12.256584277299634
27.200000000000117,261,942.3852470252349,89.72397941980772,17.23081757604854,12.295272817433274,26.72014653365285,84.30465143949948,1012.1296621700128,-0.23829465243160622,-2.4159137101825285,7.831376929385579,0.9076149560274824,33.829926809536964,5.0,16.715236177043522,63.71778010555753,81.48323960475444,12.716537202813456
27.300000000000118,262,940.5239015986228,89.79555992152267,16.74905273841647,12.352513379684442,26.72014457398749,84.30465210642224,1007.3519932643852,-0.1624166263945118,-2.4798418297716784,7.898849861547054,0.7875213514642818,37.57955044776416,5.0,17.26622242982071,62.60695446032784,69.82811630052883,12.029836796834045
27.40000000000012,263,938.5157631692568,89.79146802689655,17.043773739740804,12.313762050622552,26.72013566290598,84.3046557300767,1007.4088487685475,-0.534222540300803,-2.562531143908227,8.180261844086163,0.7766963393358582,31.271866067440556,5.0,16.975308959922476,63.21422479990886,65.38634433246689,11.002523115776114
27.50000000000012,264,935.2426832259438,89.80523118500454,16.639091870939563,12.355273966899906,26.72006766375086,84.30467249335182,1008.634767798367,-0.6478079495281528,-2.4376898103401428,7.6268045595634995,0.862923497285415,31.171430731006243,5.0,17.28903667061146,63.178830379259416,76.68970323832804,12.579074626269037
27.600000000000122,265,934.2748768264311,89.82235406297897,16.542867763179444,12.288506733635474,26.720094842534287,84.3046527687038,1004.3352930949037,-0.3434996875309495,-2.2499884999882345,7.81022144351875,0.8567761119625734,28.306640370475794,5.0,16.858101576224627,63.68788212078874,71.9039534399607,11.579771657329902
27.700000000000124,266,931.9369315502926,89.85282396533981,17.259548307752045,12.317785028829967,26.720096345573687,84.30467087090503,1004.1797147369903,-0.8219869427938823,-2.282008095209026,7.791785918395126,0.8860333127193566,33.501685097773596,5.0,17.358423432196023,63.655610509672435,64.85527481326122,11.655326065213485
27.800000000000125,267,929.759392016485,89.85820693436733,16.902003224590352,12.33084813532296,26.72007595996157,84.30468305217191,999.4067328864413,-0.9813863324581045,-2.4499604130078954,7.8550729611700865,0.8641937990496763,35.51741478048047,5.0,16.642708882627407,64.67648034824569,73.99079864474032,12.326074320625992
27.900000000000126,268,928.4388607299786,89.8881090378218,16.941973707783177,12.31943423406598,26.72009655344975,84.30465081225087,997.1134650340298,-0.8190303228963878,-2.2447310147629524,7.790908333529198,0.7916103494283947,31.584076634151813,5.0,16.978505019010704,63.32789485732928,67.92215936981931,11.745622785254731
28.000000000000128,269,926.7290512494222,89.91687157394438,17.477998081005815,12.28395862607997,26.720107826655227,84.30466073899963,992.9781673670294,-0.9247295395193346,-2.245357913592758,8.048338031101169,0.8135881408874185,38.362442655020565,5.0,16.990259227761207,64.33913580404871,72.33669849872011,12.07877681360517
28.10000000000013,270,924.9203748919689,89.9617379462176,17.11350344086858,12.302391151885727,26.72010285005428,84.30464035390695,995.9155146838577,-1.080925654970123,-1.9828215480707034,8.250205083860639,0.8826137392348572,35.1409331336163,5.0,16.777088296172344,64.14209601057127,62.71157727576556,11.175195396223389
28.20000000000013,271,922.6709042640929,89.97699683691025,17.486244675915188,12.346729416229204,26.720119967082027,84.30465664555565,994.8903730293716,-1.1832739327104418,-2.1351152381293104,7.748746794089723,0.8747079113191474,35.75392597471816,5.0,17.442403353545824,63.498212144979924,64.83477948082647,11.370615318260567
28.300000000000132,272,919.5698657286217,89.98294262933848,17.065506751085,12.320005792011253,26.720067258905136,84.30466356896696,989.6516933454385,-1.1829327328103016,-2.106160761704571,8.134846173139596,0.7928322216537824,32.82147216937017,5.0,16.542122107911798,67.12131065796063,86.95118658906632,11.54584154697601
28.400000000000134,273,918.176697779623,89.98311367768683,17.111186886506214,12.263722342411535,26.72012677232106,84.3046538652919,985.6855565035805,-1.0125010690463863,-2.0764637754318884,8.033850823482602,0.7900652518349975,34.7702813415454,5.0,17.76505463326973,63.70580750451033,58.10899983360295,11.51648067519236
28.500000000000135,274,915.8543163926157,90.03764344561989,16.90229393876115,12.307748995440978,26.720077896700097,84.30468788124692,984.5402748358397,-1.4336661565140378,-1.8913340822172302,7.889954435296051,0.8454345494196951,26.340595207633243,5.0,17.013505763596726,64.12062108297333,86.65709770389981,12.361852216003351
28.600000000000136,275,914.4412791396985,90.01580567773307,17.218450405960095,12.338819858796583,26.720067468696065,84.30462952692051,984.6064684188307,-1.4751919942915466,-2.1869404417962173,8.154786279061451,0.8046709126859103,38.63670141191196,5.0,17.014025091663495,64.5489651691783,63.847338254597474,12.260700674837997
28.700000000000138,276,912.2144171894035,90.08233642741246,16.719850101105965,12.303574880687345,26.7201321422097,84.30465246518466,984.9378249157045,-1.5831545242447698,-2.050297655516125,7.961697194466039,0.8258821059292806,32.69024333488755,5.0,17.323238127690658,65.52062016040236,67.60731771546956,11.521416886309813
28.80000000000014,277,910.4438211722613,90.10556801128874,17.414109500250476,12.309785792921753,26.720142189936578,84.30464623206956,981.2106941034392,-1.3939851747414795,-1.7430620311185498,8.13611559119782,0.7933511417531275,35.02794050961316,5.0,16.785576982579705,63.83969774721014,60.70812204593176,12.285159343285068
28.90000000000014,278,908.1912878536738,90.09724731607791,17.41616121647757,12.328318301155575,26.720112781067826,84.30466463560748,977.3812916845442,-1.671095777061966,-1.7701711392352573,8.114516031235413,0.9502083190043127,33.39658759716957,5.0,17.143412343599806,64.9838317785122,61.40642192539781,11.851550429863483
29.000000000000142,279,905.7028359181263,90.15976149761474,17.486503733978168,12.364693397157097,26.720072302165327,84.30465919539284,976.553513320371,-1.7660903939212296,-1.6592625851111122,8.023668275669438,0.9390585297643552,30.90669272502476,5.0,17.303471413647326,64.88379193000627,57.92115632119124,13.098006935080235
29.100000000000144,280,904.0734871450644,90.1706355896215,17.395234544984824,12.289664870363428,26.720067010108707,84.30465238964787,975.6608816739291,-1.564867888942352,-1.980677025324218,8.251639708740795,0.8604095584976855,34.908922097481955,5.0,17.186770050947892,65.67332305301305,89.51884224102633,11.730305100707977
29.200000000000145,281,902.0039565499944,90.17850210653265,17.303700298698555,12.293571032253846,26.720113646202517,84.30462451866745,972.4288374042243,-1.9182384280160885,-1.6271583637339573,8.234702201179111,0.8154336926738567,36.87488657645624,5.0,16.719954548416098,64.60349829225956,58.91990019063604,12.477256474764692
29.300000000000146,282,899.621532900221,90.18212194487432,17.36590756142768,12.310576847931095,26.72006444654621,84.30465812134345,969.1429140863196,-1.9475955761627954,-1.7902234718586554,8.295693083086315,0.9396558333265058,38.48534555008164,5.0,17.288026156694766,66.60156949922117,76.58223864284929,11.897910736939588
29.400000000000148,283,897.3929985806585,90.24383378107986,17.129236373982245,12.313256583191123,26.7200383431956,84.3046583612258,965.7398837345502,-1.8051118885067157,-1.6329215961235952,8.280684428974178,0.8622179235816948,34.54342853708733,5.0,17.101124040631504,64.14438609863963,77.8973657006811,11.725209105148073
29.50000000000015,284,895.7132664898388,90.25451256066819,16.703405384254072,12.342959615189786,26.720105001593776,84.30464384138183,965.6496642982631,-2.4250552168590263,-1.6089148898404846,8.418991128282713,0.80931401011786,35.003116407883844,5.0,17.061713216711905,61.435691963707164,75.1058772236599,11.256984959779695
29.60000000000015,285,894.505682751807,90.28177865745796,17.18184826551606,12.33949535596212,26.7200888300142,84.30468009639942,964.3011625253478,-1.9729382048293755,-1.4120841809670954,8.212436476446674,0.8880760673088787,35.2109129824138,5.0,17.211645567580057,63.10506042741833,76.16052342602845,12.99307953154394
29.700000000000152,286,892.4573761622041,90.27513506869047,16.935019241358983,12.324591465548801,26.720112758058356,84.30465707142666,962.5861666136681,-1.9938280129729815,-1.5282759699907653,8.480119128914813,0.8931788278621129,32.770410229912805,5.0,17.163990277056772,62.236444615957325,65.96827375693698,11.489692364445153
29.800000000000153,287,889.7313596552079,90.31759897533746,17.486496890288937,12.307126219054835,26.72007880147147,84.30464573838564,959.807075665806,-1.9491370885144064,-1.1793493937345985,8.747165553933074,0.9225384080318113,35.4343923583723,5.0,17.77395319229272,66.24680697959391,81.89643598145999,11.183685541151087
29.900000000000155,288,888.2627772861581,90.33703712265316,17.256779801444647,12.307020100681937,26.720104328629496,84.30463524839172,957.5433307143124,-2.2704268034370134,-1.0698157978872749,8.69402971448888,0.8739540796380011,30.235563635002293,5.0,16.973216074656204,63.29697203246925,73.18787010843421,12.808266140113206
30.000000000000156,289,885.36473391732,90.3630952589045,17.559980553178363,12.294377935153667,26.720078166840413,84.30464078650711,958.3033409584212,-1.998047620216263,-1.305884819819109,8.761030231463547,0.917291438306453,35.77137348402865,5.0,17.421358427343105,67.32183176790043,77.65459215622464,11.795248390088304
30.100000000000158,290,884.3200560877771,90.37260804976776,17.386374126275793,12.296201751671683,26.720124648436546,84.30466342412114,954.8116918416512,-2.196279880891141,-1.0799479313275961,8.77754138188785,0.9429819787258221,35.10676715190603,5.0,17.314802338462094,65.1985381382282,82.9826457753149,11.856323194605109
30.20000000000016,291,882.5662306789133,90.4131035859279,17.026902411031042,12.318154193745395,26.720121740406892,84.30463543488567,951.902069276282,-2.191840216416376,-1.0048262607092182,9.019464565639794,0.9579189677187275,34.65321436005002,5.0,17.621562304444566,65.74480019585275,73.84418290979826,12.088707843702668
30.30000000000016,292,880.780253624113,90.41262168547604,16.772649558954182,12.329301505715923,26.720125609534442,84.304639468963,948.4197823278653,-2.297601438165572,-1.1057727446385888,8.807933635659142,0.9320791674727567,29.255365846585597,5.0,17.65991615079747,65.51124899106885,65.63610667364027,12.089982798690341
30.400000000000162,293,877.9088394105335,90.45083168339183,17.135239718840353,12.318306123635901,26.72008064237881,84.30467981684662,948.6063062653848,-2.2022930442361757,-0.7352772268601323,8.987013200355563,0.9815561383431957,34.432871339361476,5.0,18.189460861134606,66.82241806733775,71.93888215126603,11.054301887608805
30.500000000000163,294,875.4349798749039,90.49021321402384,17.45134035946485,12.347188686677143,26.720071982716863,84.30464253899075,945.0101818961289,-2.3090943770402204,-0.902287954847323,8.922442857131164,0.8962316050017756,38.91893389294876,5.0,17.243999278957297,67.10012289513074,71.8875284571068,12.528977811494679
30.600000000000165,295,874.3651280043993,90.46786096612452,17.29311711320213,12.324001657464049,26.72012208548331,84.30467342944065,945.6297888136662,-2.5825114192653076,-0.5636423674995421,9.14842431067929,0.9629381207716993,35.030305519305,5.0,17.232308485180177,63.17738854864614,72.74378082568559,11.719100158531187
30.700000000000166,296,871.8347957816914,90.52369464891102,17.180043638353112,12.304945056823408,26.720104604447677,84.30468368437171,942.3756375752624,-2.5274526670985136,-0.6290020932367206,8.96767786617286,0.9497627249077818,33.677033849910245,5.0,17.27087968451108,65.83506128896276,68.69804917261908,11.598797994715506
30.800000000000168,297,869.3365058944868,90.54205271492948,17.14894231479535,12.313893280845303,26.72009589980192,84.30464048796446,942.6568088448722,-2.387422708645957,-0.7665723009451111,9.225902937315174,0.9615298251255966,38.65915141168257,5.0,16.807285646993154,65.6859270536669,60.85624764868778,11.093817799433253
30.90000000000017,298,867.5806074352893,90.56791691905194,16.78405995882747,12.288888392348628,26.720079091736093,84.30466099105513,940.677451004155,-2.461860028194899,-0.24132893517962922,9.318588083153802,0.9951307516196576,30.29312692071555,5.0,17.418288888392826,65.67958900789192,63.162299288481265,11.886894519108255
31.100000000000172,299,865.1822205086887,90.58473990892973,17.472890309214005,12.305454524238415,26.72008315055167,84.30464427057406,935.285399699782,-2.3231053692700647,0.0052932350007331985,9.679049142972485,1.050890841846303,25.153053837025816,5.0,17.231573882340044,65.48308364443432,81.28321549122539,12.27694907543397
31.200000000000173,300,862.0555611579365,90.60876699392219,17.53375113851799,12.296432994949084,26.720091078760447,84.30465862632155,930.6147780828336,-2.7453205271683228,-0.004136262273378877,9.330880432862175,1.0294292023175553,32.04554716418822,5.0,17.14418385416644,64.4166385814528,78.04470426247644,12.72825502036439
31.300000000000175,301,859.368804349022,90.64315347513107,17.307625957376644,12.301094694189214,26.720054305080826,84.30466187043518,930.5848414927322,-2.3836049012423626,-0.2674326596429645,9.715485217302351,0.9326307456520346,26.34240552511952,5.0,17.27223974961817,65.59173958820772,67.44546648753875,11.636405247691
31.400000000000176,302,857.7422375006354,90.66545670911763,17.542999458476324,12.308011815110511,26.72009415819113,84.30465362137842,927.1686304553963,-2.5900424800342563,-0.0194920454793785,9.671911161299276,1.0949036937812695,38.00488065636097,5.0,17.679231138893392,64.19973905172034,69.75653614886963,12.091445931815192
31.500000000000178,303,857.0951197501421,90.70126930485137,17.4931890631448,12.318010271024542,26.72007973328749,84.30463358922071,924.566656523134,-2.390062379378593,0.27455037045961334,9.928776428756501,0.9823519539150807,35.97570385191709,5.0,17.129513054130364,65.26901860958922,86.58340135272653,12.219510803699286
31.60000000000018,304,854.56899599489,90.6815044651185,17.454515664277757,12.32181644601962,26.720088687930595,84.3046610768381,923.3474017230446,-2.4981237109962584,0.048678129605675524,10.24307999707877,1.091995434226756,34.003081882037264,5.0,17.346789004202957,66.77801178685255,68.83579208873692,11.195096466020148
31.70000000000018,305,851.8942043095172,90.72580572001984,17.91897953204981,12.312321470173803,26.720096979091203,84.30462401319214,924.2044108227027,-2.5190599317783793,0.33818131639327564,9.529896816351865,0.9474202293501696,31.157808095117904,5.0,17.096128509878888,66.39398148392317,87.87224335686803,12.180233586620313
31.800000000000182,306,850.1791640653935,90.76965240122757,17.834096705557624,12.285794349072628,26.720057477485263,84.30464904189421,918.7828846770683,-2.2125103235133197,0.3772335449124516,9.915217005434315,1.048831039379704,32.05759124434178,5.0,17.16909930493186,64.32097015331065,78.8615511316062,12.454142098991078
31.900000000000183,307,847.1064399345497,90.76135530151171,17.622213034903815,12.270343505756095,26.720073380495617,84.30465210532454,916.9383388260793,-2.6253775096331866,0.6220032284725733,9.948286909521103,1.0785130248523476,35.083269733172884,5.0,17.59212262797945,65.79054670299264,72.65196488639933,11.51836497779898
32.000000000000185,308,845.2022196676963,90.79598642690898,17.012150639932397,12.317788394268959,26.720116146574867,84.30465787331622,915.7794891649041,-2.405207315704336,0.6395513910140553,9.974137860355407,1.0645127952770952,32.08673311018842,5.0,18.52093597753612,67.46611481714615,73.69712919286432,12.09619161992828
32.100000000000186,309,842.404880189423,90.81668359154143,17.086495529014005,12.301016880399493,26.72011431499548,84.30462238179902,911.6030914487328,-2.372791886137703,0.31098025340094465,10.126791792162761,1.0187936553628059,37.500323666102936,5.0,17.705496691960448,65.51995970352442,69.91226892256442,12.326027037314285
32.30000000000019,310,838.9778533247795,90.86641728777103,17.69198006632272,12.319382748618715,26.720078518579438,84.30464807268022,910.050728600527,-2.367818447543326,0.9090338041435174,10.272637191630368,1.0999786892031518,33.19089522063632,5.0,17.44597489992102,66.39624074958365,74.65163959707951,11.87457293274566
32.40000000000019,311,837.1112228420841,90.892122344736,17.29756582500532,12.305150777668016,26.720098481885305,84.3046680314611,905.1706906070915,-2.638214195312528,0.9433226757515053,10.483800383819734,1.1806339165469173,27.533759206634965,5.0,16.626416242116708,66.34693152585001,84.86348413980956,12.164637053274392
32.50000000000019,312,835.5317935863751,90.89441041735051,16.681728865392344,12.324826967339186,26.72010263793546,84.30466869888782,905.9305959952229,-2.106387734224077,0.9436400023627743,10.857277689657112,1.1652938270035558,24.108329314432456,5.0,17.77341484808036,66.9060336141063,84.23561433180049,11.783514191089166
32.60000000000019,313,833.4210747119496,90.92765364520538,18.330711243087194,12.302371658153197,26.720056876733857,84.3046271137312,903.6153295816514,-2.4167690323702264,0.9907963373051474,10.8442771030855,1.1585181818098655,35.90224413924668,5.0,16.957876720238964,68.18256407643835,66.32614053676846,11.890698279961912
32.700000000000195,314,832.4067278196694,90.93980770586354,17.74936758450375,12.30059606692303,26.720092585306542,84.30466202919209,899.4994541281169,-2.377969888983801,1.170445926192504,10.703280774734269,1.102906475458513,34.31405432887859,5.0,17.685751612943395,63.477523946136714,79.23012993061454,11.604512411786853
32.800000000000196,315,830.2494629216136,91.00205381892064,17.34322734212348,12.3097640342556,26.720090391973947,84.30465581895758,899.2282254457524,-2.4058187520248944,1.1142691834319378,11.010671898476593,1.2074960206672967,29.887825564507068,5.0,17.543691344668883,64.52317102656178,82.68391375292,11.415324392600073
32.9000000000002,316,828.0955776926038,91.00433224352845,17.630294242304732,12.31999834116522,26.720096534549832,84.30467679866071,895.7871057093361,-2.3659595765532964,1.07924600184997,10.903762159443428,1.0702240973106885,31.78678575853689,5.0,17.749334348388796,66.62971459206544,80.74033229824063,11.392800226097302
33.0000000000002,317,824.6600707010319,91.01926565648073,17.39991406273967,12.337209972071689,26.72010145071239,84.30462452903954,899.3453025195109,-2.1424053545921002,1.4582823350298952,11.000772214402732,1.2364849641415259,35.94334513210539,5.0,17.527908170779327,65.28268906378284,82.41414221411013,12.512060139749055
33.1000000000002,318,823.7349723553062,91.07774901524449,18.144334097263993,12.285507343051256,26.720110543077606,84.30466098020217,893.3237891971258,-1.9273638160100675,1.337183580196111,11.22054945034277,1.1247423280338096,36.60023162991572,5.0,18.11109159726794,63.37786482811441,92.27181722878359,11.734420375432467
33.2000000000002,319,821.5914348165749,91.1015560282368,17.36613427748684,12.267461564586714,26.720117692991245,84.30463230485047,888.95642203065,-1.9983513852794552,1.4931729943922227,11.083259064234092,1.1509181121530296,29.193953695761174,5.0,17.967977527210238,68.5914419735856,77.76849417097058,12.093173966121332
33.3000000000002,320,819.5889534613403,91.04551559111954,17.396481615597324,12.316895686932831,26.720091009769554,84.30463449852707,887.4426342735449,-2.021001743700965,1.5502310779659492,11.50993320992547,1.1472903718761451,32.54838876110162,5.0,17.761594845679635,64.2852672058674,76.60307309562343,11.666755187076843
33.400000000000205,321,818.7589946327257,91.10555960543284,17.211286559664682,12.31118945589313,26.72009588889524,84.30466248081161,890.1835558645801,-1.7275624925081816,1.8206709400240835,11.378267920547207,1.164827034607475,28.371150127151118,5.0,17.515092090448537,65.67455974430823,94.52148906496764,11.845627722712253
33.500000000000206,322,816.0935955708796,91.13880264317926,17.477548256904576,12.262213697289532,26.720107480560852,84.30464452620183,886.2934599287888,-1.9155559765713621,1.4441753660639844,11.351654160810183,1.2292026493300554,29.41113818911511,5.0,17.715496531106453,64.15139207559078,73.41610100524939,12.342154811199448
33.60000000000021,323,813.5352048628296,91.1299174780024,17.638313300813877,12.300456995069835,26.720101058666096,84.30467821425106,886.3919074339638,-1.7805634636937209,1.7364679680744222,11.617781439103057,1.1969545736744518,31.711629179734242,5.0,17.68760576302775,65.81271034560783,85.75063880394171,13.061286080293446
33.70000000000021,324,811.4715665432358,91.16467741319295,17.335677507224936,12.327460412965111,26.720130174202147,84.30467130077788,881.7500864023611,-1.777421409663727,1.5902681567150705,11.427928751431551,1.1216490431883805,35.77606508281534,5.0,17.21854910391522,66.93190949421991,84.15253789150727,12.250758671131743
33.80000000000021,325,809.8793757846602,91.18930345315783,17.977143890818706,12.287655690105314,26.720101722573315,84.30463601007739,882.1624961263341,-1.4458948366575928,1.9738266068070458,11.36779007793367,1.141495966282902,36.282761655417566,5.0,17.99603113725732,66.89859509849619,88.84417560716483,12.204003314786476
33.90000000000021,326,808.4588930279365,91.2156843622688,17.888059045772103,12.278904941906868,26.720093860494828,84.30464517271282,878.6555777612713,-1.775060059320961,2.004636027093803,11.302263489410612,1.0877397077505917,30.627663906301706,5.0,17.924958660051928,68.51265385298777,85.54699169587126,11.809037511586851
34.00000000000021,327,806.1425698403265,91.2447687803172,18.360258176471664,12.298348662087598,26.720075932259594,84.30466717909728,878.0570333370883,-1.5954219902679807,1.8563359786111293,11.551774065401954,1.1097933794996222,30.12948792976383,5.0,17.962453065801324,64.39287005011987,79.43319701055836,13.198758284708266
34.100000000000215,328,803.4356207090259,91.23710560436713,17.40586533177345,12.282402314211227,26.720132068867354,84.30466857034587,873.0347146492452,-1.6544645474217439,1.9197805243959678,11.480044042333262,1.0949344186601964,28.824875039434765,5.0,18.084802549150737,66.72401635864982,88.3930392871021,12.106773915143803
34.200000000000216,329,801.5826462242092,91.2866913075354,17.905221595747925,12.33106585417633,26.720069368581495,84.30465391532171,871.3120683977371,-1.2288590252484173,1.97239622693874,11.785079186400258,1.2333556017281397,29.06308625969788,5.0,18.005102221162062,66.6494807226011,77.55300959163147,12.257238737420243
34.30000000000022,330,800.1695200473262,91.2969975756088,17.463016002193463,12.288656525420167,26.720084690606278,84.304652144337,869.049177786612,-1.1664275095053098,1.9868327391111391,11.83602593614424,1.198290491379742,30.335267654142065,5.0,17.740447277178067,63.71977339241704,70.06849170141156,12.33106781937494
34.40000000000022,331,797.7010853965298,91.32202892378007,17.83454676608525,12.310842048848432,26.72010336105308,84.3046389362561,865.7011371665407,-1.317384578729715,2.293069782896078,11.778659707802875,1.2346947516867248,33.746845573241515,5.0,18.25716115862268,64.60077216632294,79.97336758227846,12.764975215556246
34.50000000000022,332,796.1621287636283,91.33723967861386,18.272358674597175,12.30867756499595,26.7200954724157,84.3046372499953,863.5014283959798,-1.0011842794897585,2.0194403473620524,11.767217731363893,1.1719138599926409,39.05353807188842,5.0,17.75503630114903,66.0422967385907,84.79972646430136,12.516106745041071
34.60000000000022,333,794.9496146986565,91.35587573674671,17.404182107650882,12.297390077597354,26.720083730863536,84.30465776143605,867.3085687409891,-1.200870253161551,2.569996590242252,11.82799453980533,1.1305909100831009,25.989868615536267,5.0,17.666520548816806,68.11584102046602,72.18828765228601,12.185453266801355
34.70000000000022,334,791.4832137745823,91.38518865522154,17.864047111807956,12.282266111891245,26.720071673586805,84.3046549233841,858.4307603807788,-1.1525303876856372,2.084302797397992,11.965672275117738,1.2825977931634078,30.767161858321668,5.0,17.970443182338578,66.0050632028275,79.89500999591479,12.588719951175802
34.800000000000225,335,790.3402960790387,91.3772022290313,17.55513095814059,12.318422307180608,26.720112322966543,84.30463429725229,861.7524017107105,-0.8801071607058302,2.424010004637551,11.87461283582024,1.2273417789054002,30.266679695952128,5.0,17.401431036814763,65.49290146835943,85.60440541196924,11.100215889632993
34.900000000000226,336,789.1853214809586,91.42902801630999,17.84616605203426,12.29017276945067,26.72006621457352,84.30460567295299,858.5269610654037,-1.0459096683806117,2.414605221133725,11.51756578761481,1.2428956800014674,28.67366514188064,5.0,18.014824469604708,62.87196966687828,75.51433825849169,11.328699126492808
35.00000000000023,337,786.0120951374861,91.45007573336294,17.49304064155567,12.289690310233489,26.72012081048756,84.30465025789175,856.9045919271939,-0.9054723235809585,2.6644899356069636,11.709973630260057,1.2657750221917026,29.895528270419188,5.0,17.634530290736308,66.34847291697301,88.37011004912313,11.17773290478287
35.10000000000023,338,783.3103840200469,91.47588552084738,17.74383554252408,12.29679624593026,26.720102397172386,84.30464651296886,854.5413680517014,-0.49806440202798674,2.488153171029571,11.733778080614561,1.3066714546080693,35.440807077114435,5.0,18.1196822189127,64.25401730649816,88.16399342357523,12.502960105785961
35.20000000000023,339,781.9238709512953,91.50703709842453,18.58112661615097,12.308529628490763,26.720138618247876,84.30462977867721,852.16301818796,-0.5893744006292565,2.4290686266211887,11.974513852069823,1.2313767769717818,35.11525788888113,5.0,17.7482385409734,67.70699157903108,84.58466770676128,11.413574686299752
35.30000000000023,340,779.5635009536979,91.51539041345269,18.12019391151919,12.32943362441836,26.72007205163968,84.30464756086032,851.0108908706491,-0.4252551519584764,2.4066313356130067,11.596119849804339,1.239869172738332,34.53078702302845,5.0,17.424026494643464,66.92026372191432,76.58167443031402,11.132794755573606
35.40000000000023,341,778.117130820961,91.56732770674802,17.37634254106401,12.303403498393932,26.720106895488165,84.30467056634701,849.2881717228307,-0.3864104926454409,2.521482554372177,11.547844032104921,1.3238543160246232,34.23271709826349,5.0,18.00604764775508,63.07478225948643,86.40433847790408,12.448169356137987
35.500000000000234,342,776.3077698429049,91.56361607442221,18.096745019274042,12.318102289230062,26.720099894119997,84.30464485841816,846.2089077155355,-0.3341139244425113,2.325963357203303,11.781813516868137,1.22375645774497,38.176976087674355,5.0,18.230370758762,66.21480514350226,97.91588078310784,12.218704775183431
35.600000000000236,343,774.570116293562,91.56892368208,17.78549845731013,12.289764672295235,26.720097561770363,84.3046511560785,844.1451325789042,-0.2872579583071214,2.5393493456952774,11.767838408072533,1.1705823288019501,29.80662589093243,5.0,17.57135496450737,64.4757249979642,85.36423511931571,11.686246480591281
35.90000000000024,344,767.9163552048387,91.6269031063551,17.997654670668933,12.283197522003281,26.720084015843277,84.30465368866739,837.508644362974,-0.3104665455202387,2.6435449698652485,11.89034087640063,1.2763083262533597,32.56999224449052,5.0,18.399461765395834,68.76370721822565,82.55340055611458,11.393689426362776
36.00000000000024,345,766.1117304559596,91.66069673160713,17.89596079610311,12.300781825222726,26.72010193307671,84.30465880284017,840.5658748808577,0.20497369498472945,2.629586048104855,11.660854830996547,1.2636619036683028,31.834977611371638,5.0,17.993196624475978,64.14179156438617,81.16888024278116,11.457690113569532
36.10000000000024,346,763.7302469521225,91.67106953228864,17.992757160765716,12.285110678086186,26.720056549479118,84.30466545938091,831.9226314382208,0.15830211484346737,2.607357220518979,11.592029574557882,1.1126334729638991,25.898644473934898,5.0,18.030673385524427,66.45280428312002,96.32158453732168,12.431979696573459
36.200000000000244,347,762.290308735879,91.73260572987935,17.219170906281853,12.29246601384035,26.720072041755724,84.30462147422527,832.9028709357797,0.16549594300486375,2.5484841193306087,11.56849471566715,1.2111472987331189,38.260784669013,5.0,17.67465988182445,65.31462388612648,94.70707613649662,12.598627049523932
36.300000000000246,348,760.1421794928267,91.75089884580666,17.90374340572732,12.305135342164016,26.720092632684334,84.30468348114069,831.0183843845134,0.6151444328307383,2.7916972812358294,11.654721270362355,1.2109727700318285,27.15578921727145,5.0,18.517264135888066,66.57146399852363,103.01857949035119,12.539242549459049
36.40000000000025,349,757.7397998154495,91.7436343559891,18.210180816659996,12.285623129075132,26.720080322695882,84.30463828035988,826.9751542754253,0.5567707922627277,2.60340103411253,11.721764056656562,1.2660422363773174,35.64806443891251,5.0,17.966899497041137,67.21348472008921,78.75658233169399,11.91566944825692
36.50000000000025,350,756.4042690158459,91.79975915623866,17.743875091905018,12.297829943351388,26.720072593705513,84.30466475656294,827.4811616096829,0.47710442076200515,2.2911521401440513,11.776009859046859,1.23430370722171,25.639939696039974,5.0,17.916937080101167,66.26780025539068,106.97993837108578,12.222013451872112
36.60000000000025,351,753.5701000289266,91.82227887063632,18.150698849851235,12.317065181236392,26.72011694286264,84.30465140297456,820.8553278870933,0.6022852619403942,2.4299883330820604,11.554946365058973,1.131701765244672,28.493926904877657,5.0,17.540089588180873,68.25415874139634,76.57220916315526,12.166580393458302
36.70000000000025,352,751.9579573199802,91.83450649885398,17.93514834447194,12.317481726024692,26.720079874404487,84.30462332509853,821.3412947758509,0.6164623930452137,2.4317608008264706,11.350567117697624,1.227602238848622,35.98489943871529,5.0,18.4286735397803,64.37225791066997,60.023054697606284,11.145631871803058
36.80000000000025,353,749.2835676325882,91.83507778239924,18.078733066118037,12.296799459241909,26.72006836002989,84.30468355191944,822.4239257943831,0.5367580694680064,2.4708876266596755,11.576407533007856,1.1542606439734007,30.82575013887376,5.0,18.13116913661229,64.09513352812753,72.77724386474634,12.413918842854159
36.900000000000254,354,747.933155895286,91.87366709445388,18.29061725356794,12.296059834936806,26.72010583604669,84.30465512716508,816.4464301569918,0.9428736551820239,2.290218467716749,11.274893490175671,1.238470126018524,27.134762613122632,5.0,18.394232105015643,69.62808522752324,83.19469099207389,11.904447649646007
37.000000000000256,355,746.1177550552128,91.87721604125414,18.856742353659936,12.309327744716912,26.720107859395757,84.30465499275462,813.777268836575,0.9288660928280723,2.108998015562484,11.461044027273553,1.1651288443430445,34.27605578429678,5.0,18.081656730108733,66.40641169803826,89.51049125214679,12.511827538765868
37.10000000000026,356,744.1653161680798,91.92167740772757,18.27214803451613,12.303816287227676,26.720114772319153,84.30464361730421,813.9289533159061,1.0098491328211212,2.0736719594725774,11.403034006407903,1.2026026830170424,32.77513325610073,5.0,18.130433869256304,64.36994334501232,89.37456062485745,11.274123405396256
37.20000000000026,357,742.7759590900475,91.90673480293536,18.486999639438217,12.287160127292621,26.720100606147334,84.30463573738491,810.8183727930233,0.9064377192393298,1.997424709385704,11.478449918151291,1.1024798536806562,28.70585387746429,5.0,17.833196074255397,67.72882682455571,79.80623924901813,12.025770303426066
37.30000000000026,358,740.2215968690563,91.9582506252497,17.84560587814952,12.295658452036246,26.720074960435465,84.30464744405161,809.286907130121,1.2060639999348228,2.42988755656408,11.037906976869474,1.2013998369961942,33.99242944226322,5.0,17.718339364606134,66.86379666778488,89.84437513037918,11.965520522206441
37.40000000000026,359,737.9790474451511,91.99234220129502,17.946703068085622,12.281242982597774,26.72011913833205,84.3046485719054,807.0532239011728,1.1275928395532289,1.9918098158304693,11.166591498070146,1.1585793910129956,29.461524377409003,5.0,18.275575291150037,68.13415785914675,88.50555077819276,11.51470834290208
37.50000000000026,360,735.6397604289431,92.00838134839866,18.28885134173751,12.31604616128314,26.72011460954656,84.30465112140986,807.5366203647991,1.273545900749426,1.9457137172656338,11.207499916439778,1.1512999623542644,24.90072584338848,5.0,18.491439224590167,66.77049996354755,68.6460742179575,12.515258592635124
37.600000000000264,361,734.0526295927242,92.02657570615888,18.48404635396872,12.31041037805896,26.720095498225717,84.30462563726273,802.891426284645,1.2109959131855448,2.1148301203057587,11.06073463700213,1.1295031318284343,30.922992155355914,5.0,18.219310573900607,69.19186331641438,75.83722037565768,12.104936681125299
37.700000000000266,362,731.9138188680361,92.06652813239887,18.31478430652384,12.290398661577077,26.720093086293154,84.3046354091722,801.8714819972438,1.4585746106582944,2.1722755329746697,10.976441819487121,1.1261372610309477,27.87314187926256,5.0,18.635773804652345,64.72096850278294,95.32560765759239,11.236603471471149
37.80000000000027,363,729.9038495415009,92.09661773002982,18.103718172565326,12.267683582392419,26.720122166823856,84.30465082098989,800.3282617440002,1.5592494627845044,2.0421005813935293,10.941200586923559,1.1589074937676425,29.71006749575961,5.0,18.49451358428596,67.28757208712135,83.0976353788396,11.427113637910331
37.90000000000027,364,727.4170859965715,92.10177483285374,18.629819906678684,12.303778144685795,26.720110069420123,84.30467643580846,797.4797283036684,1.855972171539668,1.9181426752423067,10.693337134514989,1.1793863254328891,32.68293252009594,5.0,18.184150701873932,67.86124332603237,94.0382618176658,13.190599412148527
38.10000000000027,365,724.874586686647,92.12449952480428,18.82098385725499,12.296439092685942,26.720093013240202,84.30471485082019,793.9840663072625,2.110318801672601,1.7264128508782242,10.64542496167754,1.1254977927685612,27.763454154885228,5.0,18.243606660701506,68.20832075731593,80.89022736891611,11.66325919699591
38.20000000000027,366,721.4784748686885,92.19047742248698,17.85351250716567,12.286181047250869,26.72010042580205,84.30461470317327,792.966798749285,1.8224056962474315,1.753645485374252,10.568101493191735,1.1899834218704768,30.158968835426304,5.0,18.04991591797598,70.06921807486754,85.79197533153784,12.312124086797208
38.300000000000274,367,719.8462634391575,92.2012621880667,18.304574175712467,12.295670381864491,26.720109693887505,84.3046476410712,789.0384039218332,1.7383350046909418,1.5812949029824135,10.655030674391849,1.1645490973596837,32.336731077484906,5.0,17.903758949321297,66.36471855224404,86.90320861156775,11.576184706693967
38.400000000000276,368,718.5479403001648,92.2173534609593,18.318587386739868,12.271306535639457,26.720112980056335,84.30466624754472,787.4229727357094,1.859533411848201,1.6361043036310121,10.08743437648647,1.1431593803012456,26.78860883352544,5.0,18.263740055657824,63.42550845579468,87.98622207065627,11.369579847513492
38.50000000000028,369,716.5546343772527,92.23088426211879,18.78517807819617,12.313369167827872,26.720059894252742,84.30466104169169,787.0584207245454,1.7773788571696594,1.4805349466046374,10.463376182747108,1.0678223258268897,35.36450230614068,5.0,18.511176621616727,68.38690027195675,72.40299417928124,11.044594718391822
